"","subj","trialNo","stimNo","focNo","verbNo","con","foc","verb","quesCode.art.1","quesCode.art.2","quesCode.noun.1","quesCode.noun.2","resp.art","resp.noun","respCode.art","respCode.noun","TMS","sess.no","RT","accur","decision","accur.code"
"2","1",2,67,2,66,"syntax","object","66",1,1,1,2,"acc","Patient",1,2,"sham",3,559.5,"correct","article",1
"5","1",5,46,2,45,"syntax","object","45",1,1,1,2,"acc","Patient",1,2,"sham",3,588.4,"correct","article",1
"7","1",7,21,1,21,"syntax","subject","21",1,2,1,2,"nom","Agent",1,1,"sham",3,639.7,"correct","article",1
"9","1",9,48,2,47,"syntax","object","47",1,2,1,2,"acc","Patient",2,2,"sham",3,646.1,"correct","article",1
"11","1",11,64,1,64,"syntax","subject","64",1,1,1,1,"nom","Agent",2,2,"sham",3,765.4,"correct","article",1
"12","1",12,8,2,7,"syntax","object","7",1,2,1,2,"acc","Patient",2,2,"sham",3,740.4,"correct","article",1
"15","1",15,31,1,31,"syntax","subject","31",1,2,1,2,"nom","Agent",1,1,"sham",3,596.1,"correct","article",1
"18","1",18,3,1,3,"syntax","subject","3",1,2,1,1,"nom","Agent",1,2,"sham",3,776.2,"correct","article",1
"21","1",21,9,2,8,"syntax","object","8",1,1,1,1,"acc","Patient",1,1,"sham",3,608.4,"correct","article",1
"23","1",23,10,1,10,"syntax","subject","10",1,2,1,1,"nom","Agent",1,2,"sham",3,573,"correct","article",1
"25","1",25,27,2,26,"syntax","object","26",1,1,1,1,"acc","Patient",1,1,"sham",3,634,"correct","article",1
"26","1",26,38,1,38,"syntax","subject","38",1,2,1,1,"nom","Patient",1,1,"sham",3,559.3,"correct","article",1
"28","1",28,47,2,46,"syntax","object","46",1,2,1,1,"acc","Patient",2,1,"sham",3,913.4,"correct","article",1
"30","1",30,28,2,27,"syntax","object","27",1,1,1,2,"acc","Patient",1,2,"sham",3,774.1,"correct","article",1
"33","1",33,9,1,9,"syntax","subject","9",1,1,1,2,"nom","Agent",2,1,"sham",3,786.4,"correct","article",1
"35","1",35,49,1,49,"syntax","subject","49",1,1,1,2,"nom","Agent",2,1,"sham",3,618.5,"correct","article",1
"36","1",36,13,2,12,"syntax","object","12",1,1,1,1,"acc","Patient",1,1,"sham",3,669.8,"correct","article",1
"38","1",38,11,1,11,"syntax","subject","11",1,2,1,2,"nom","Agent",1,1,"sham",3,1043.8,"correct","article",1
"39","1",39,45,2,44,"syntax","object","44",1,1,1,1,"acc","Patient",1,1,"sham",3,565.5,"correct","article",1
"41","1",41,53,2,52,"syntax","object","52",1,2,1,2,"acc","Patient",2,2,"sham",3,914.2,"correct","article",1
"43","1",43,48,1,48,"syntax","subject","48",1,1,1,1,"nom","Agent",2,2,"sham",3,588.6,"correct","article",1
"45","1",45,44,2,43,"syntax","object","43",1,2,1,2,"acc","Patient",2,2,"sham",3,537.2,"correct","article",1
"47","1",47,23,1,23,"syntax","subject","23",1,1,1,2,"nom","Agent",2,1,"sham",3,651.5,"correct","article",1
"49","1",49,51,2,50,"syntax","object","50",1,2,1,1,"acc","Agent",2,2,"sham",3,574.5,"correct","article",1
"51","1",51,35,2,34,"syntax","object","34",1,2,1,2,"acc","Patient",2,2,"sham",3,697.7,"correct","article",1
"54","1",54,22,2,21,"syntax","object","21",1,2,1,2,"acc","Patient",2,2,"sham",3,491.6,"correct","article",1
"57","1",57,1,1,1,"syntax","subject","1",1,1,1,1,"nom","Agent",2,2,"sham",3,1439.7,"correct","article",1
"59","1",59,39,2,38,"syntax","object","38",1,2,1,1,"acc","Patient",2,1,"sham",3,598.9,"correct","article",1
"61","1",61,47,1,47,"syntax","subject","47",1,2,1,2,"nom","Agent",1,1,"sham",3,973.4,"correct","article",1
"62","1",62,14,2,13,"syntax","object","13",1,1,1,2,"acc","Patient",1,2,"sham",3,642.4,"correct","article",1
"64","1",64,19,1,19,"syntax","subject","19",1,1,1,2,"nom","Agent",2,1,"sham",3,836.8,"correct","article",1
"66","1",66,10,2,9,"syntax","object","9",1,1,1,2,"acc","Patient",1,2,"sham",3,924.2,"correct","article",1
"67","1",67,7,1,7,"syntax","subject","7",1,2,1,2,"nom","Agent",1,1,"sham",3,808.4,"correct","article",1
"69","1",69,60,1,60,"syntax","subject","60",1,2,1,2,"nom","Agent",1,1,"sham",3,837.8,"correct","article",1
"70","1",70,16,2,15,"syntax","object","15",1,2,1,2,"acc","Patient",2,2,"sham",3,982.4,"correct","article",1
"73","1",73,24,2,23,"syntax","object","23",1,1,1,2,"acc","Agent",1,1,"sham",3,544.9,"correct","article",1
"74","1",74,24,1,24,"syntax","subject","24",1,2,1,1,"nom","Agent",1,2,"sham",3,640.2,"correct","article",1
"76","1",76,17,2,16,"syntax","object","16",1,1,1,1,"acc","Patient",1,1,"sham",3,652.6,"correct","article",1
"79","1",79,38,2,37,"syntax","object","37",1,1,1,2,"acc","Patient",1,2,"sham",3,683,"correct","article",1
"81","1",81,44,1,44,"syntax","subject","44",1,1,1,1,"nom","Agent",2,2,"sham",3,1449.5,"correct","article",1
"83","1",83,21,2,20,"syntax","object","20",1,2,1,1,"acc","Patient",2,1,"sham",3,680.9,"correct","article",1
"86","1",86,4,2,3,"syntax","object","3",1,2,1,1,"acc","Patient",2,1,"sham",3,899.2,"correct","article",1
"87","1",87,25,1,25,"syntax","subject","25",1,2,1,2,"nom","Agent",1,1,"sham",3,1339.9,"correct","article",1
"90","1",90,17,1,17,"syntax","subject","17",1,1,1,2,"nom","Agent",2,1,"sham",3,690,"correct","article",1
"92","1",92,18,1,18,"syntax","subject","18",1,2,1,1,"nom","Agent",1,2,"sham",3,1334.6,"correct","article",1
"94","1",94,3,2,2,"syntax","object","2",1,1,1,2,"acc","Patient",1,2,"sham",3,780.6,"correct","article",1
"96","1",96,22,1,22,"syntax","subject","22",1,1,1,1,"nom","Agent",2,2,"sham",3,773.2,"correct","article",1
"97","1",97,32,2,31,"syntax","object","31",1,2,1,2,"acc","Patient",2,2,"sham",3,713.6,"correct","article",1
"99","1",99,64,2,63,"syntax","object","63",1,2,1,2,"acc","Patient",2,2,"sham",3,712.5,"correct","article",1
"100","1",100,32,1,32,"syntax","subject","32",1,1,1,1,"nom","Agent",2,2,"sham",3,546.5,"correct","article",1
"103","1",103,66,1,66,"syntax","subject","66",1,1,1,2,"nom","Agent",2,1,"sham",3,840.6,"correct","article",1
"106","1",106,35,1,35,"syntax","subject","35",1,1,1,1,"nom","Agent",2,2,"sham",3,983.9,"correct","article",1
"109","1",109,15,2,14,"syntax","object","14",1,2,1,1,"acc","Patient",2,1,"sham",3,577.3,"correct","article",1
"111","1",111,28,1,28,"syntax","subject","28",1,2,1,1,"nom","Agent",1,2,"sham",3,777.3,"correct","article",1
"112","1",112,12,2,11,"syntax","object","11",1,2,1,2,"acc","Patient",2,2,"sham",3,759.9,"correct","article",1
"114","1",114,67,1,67,"syntax","subject","67",1,2,1,1,"nom","Agent",1,2,"sham",3,1046.6,"correct","article",1
"117","1",117,18,2,17,"syntax","object","17",1,1,1,2,"acc","Patient",1,2,"sham",3,869,"correct","article",1
"119","1",119,20,2,19,"syntax","object","19",1,1,1,2,"acc","Patient",1,2,"sham",3,999,"correct","article",1
"121","1",121,6,2,5,"syntax","object","5",1,1,1,2,"acc","Patient",1,2,"sham",3,903.3,"correct","article",1
"124","1",124,50,2,49,"syntax","object","49",1,1,1,2,"acc","Patient",1,2,"sham",3,637.5,"correct","article",1
"126","1",126,46,1,46,"syntax","subject","46",1,2,1,1,"nom","Agent",1,2,"sham",3,655,"correct","article",1
"129","1",129,27,1,27,"syntax","subject","27",1,1,1,2,"nom","Agent",2,1,"sham",3,947.6,"correct","article",1
"131","1",131,16,1,16,"syntax","subject","16",1,1,1,1,"nom","Agent",2,2,"sham",3,623.3,"correct","article",1
"132","1",132,11,2,10,"syntax","object","10",1,2,1,1,"acc","Patient",2,1,"sham",3,563.5,"correct","article",1
"134","1",134,5,2,4,"syntax","object","4",1,1,1,1,"acc","Patient",1,1,"sham",3,1191.8,"correct","article",1
"135","1",135,52,1,52,"syntax","subject","52",1,2,1,2,"nom","Agent",1,1,"sham",3,1032.5,"correct","article",1
"137","1",137,23,2,22,"syntax","object","22",1,1,1,1,"acc","Patient",1,1,"sham",3,1057.2,"correct","article",1
"138","1",138,43,1,43,"syntax","subject","43",1,2,1,2,"nom","Agent",1,1,"sham",3,869.4,"correct","article",1
"140","1",140,61,1,61,"syntax","subject","61",1,2,1,1,"nom","Agent",1,2,"sham",3,813.4,"correct","article",1
"142","1",142,26,1,26,"syntax","subject","26",1,1,1,1,"nom","Agent",2,2,"sham",3,817.6,"correct","article",1
"145","1",145,65,2,64,"syntax","object","64",1,1,1,1,"acc","Patient",1,1,"sham",3,581,"correct","article",1
"147","1",147,34,1,34,"syntax","subject","34",1,2,1,2,"nom","Agent",1,1,"sham",3,573.7,"correct","article",1
"148","1",148,68,2,67,"syntax","object","67",1,2,1,1,"acc","Patient",2,1,"sham",3,659,"correct","article",1
"151","1",151,61,2,60,"syntax","object","60",1,2,1,2,"acc","Patient",2,2,"sham",3,722.7,"correct","article",1
"153","1",153,4,1,4,"syntax","subject","4",1,1,1,1,"nom","Agent",2,2,"sham",3,768.6,"correct","article",1
"156","1",156,20,1,20,"syntax","subject","20",1,2,1,1,"nom","Agent",1,2,"sham",3,711.6,"correct","article",1
"157","1",157,25,2,24,"syntax","object","24",1,2,1,1,"acc","Patient",2,1,"sham",3,580.3,"correct","article",1
"159","1",159,29,2,28,"syntax","object","28",1,2,1,1,"acc","Patient",2,1,"sham",3,744,"correct","article",1
"160","1",160,45,1,45,"syntax","subject","45",1,1,1,2,"nom","Agent",2,1,"sham",3,609.2,"correct","article",1
"162","1",162,49,2,48,"syntax","object","48",1,1,1,1,"acc","Patient",1,1,"sham",3,744.1,"correct","article",1
"163","1",163,15,1,15,"syntax","subject","15",1,2,1,2,"nom","Agent",1,1,"sham",3,1080.6,"correct","article",1
"165","1",165,26,2,25,"syntax","object","25",1,2,1,2,"acc","Agent",2,1,"sham",3,709.2,"correct","article",1
"168","1",168,14,1,14,"syntax","subject","14",1,2,1,1,"nom","Agent",1,2,"sham",3,615.7,"correct","article",1
"170","1",170,62,2,61,"syntax","object","61",1,2,1,1,"acc","Patient",2,1,"sham",3,725.4,"correct","article",1
"171","1",171,2,1,2,"syntax","subject","2",1,1,1,2,"nom","Agent",2,1,"sham",3,562,"correct","article",1
"173","1",173,33,2,32,"syntax","object","32",1,1,1,1,"acc","Patient",1,1,"sham",3,560,"correct","article",1
"175","1",175,2,2,1,"syntax","object","1",1,1,1,1,"acc","Patient",1,1,"sham",3,603,"correct","article",1
"176","1",176,5,1,5,"syntax","subject","5",1,1,1,2,"nom","Agent",2,1,"sham",3,675.8,"correct","article",1
"178","1",178,37,1,37,"syntax","subject","37",1,1,1,2,"nom","Agent",2,1,"sham",3,733.2,"correct","article",1
"180","1",180,63,1,63,"syntax","subject","63",1,2,1,2,"nom","Agent",1,1,"sham",3,717.7,"correct","article",1
"182","1",182,50,1,50,"syntax","subject","50",1,2,1,1,"nom","Agent",1,2,"sham",3,957.7,"correct","article",1
"184","1",184,8,1,8,"syntax","subject","8",1,1,1,1,"nom","Agent",2,2,"sham",3,988,"correct","article",1
"187","1",187,12,1,12,"syntax","subject","12",1,1,1,1,"nom","Agent",2,2,"sham",3,958.6,"correct","article",1
"188","1",188,36,2,35,"syntax","object","35",1,1,1,1,"acc","Patient",1,1,"sham",3,666.3,"correct","article",1
"190","1",190,13,1,13,"syntax","subject","13",1,1,1,2,"nom","Patient",2,2,"sham",3,762.1,"correct","article",1
"192","1",192,19,2,18,"syntax","object","18",1,2,1,1,"acc","Patient",2,1,"sham",3,958.7,"correct","article",1
"194","1",2,65,2,64,"syntax","object","64",1,1,1,1,"acc","Patient",1,1,"BA44",1,585.4,"correct","article",1
"195","1",3,48,1,48,"syntax","subject","48",1,1,1,1,"nom","Agent",2,2,"BA44",1,977.9,"correct","article",1
"198","1",6,61,2,60,"syntax","object","60",1,2,1,2,"acc","Patient",2,2,"BA44",1,513.7,"correct","article",1
"199","1",7,25,1,25,"syntax","subject","25",1,2,1,2,"acc","Agent",2,1,"BA44",1,1104.6,"incorrect","article",0
"201","1",9,47,1,47,"syntax","subject","47",1,2,1,2,"nom","Agent",1,1,"BA44",1,541.2,"correct","article",1
"202","1",10,16,2,15,"syntax","object","15",1,2,1,2,"acc","Patient",2,2,"BA44",1,682.9,"correct","article",1
"204","1",12,44,1,44,"syntax","subject","44",1,1,1,1,"nom","Agent",2,2,"BA44",1,782.6,"correct","article",1
"205","1",13,32,2,31,"syntax","object","31",1,2,1,2,"acc","Patient",2,2,"BA44",1,979.8,"correct","article",1
"207","1",15,35,1,35,"syntax","subject","35",1,1,1,1,"nom","Agent",2,2,"BA44",1,534.1,"correct","article",1
"209","1",17,67,1,67,"syntax","subject","67",1,2,1,1,"nom","Patient",1,1,"BA44",1,588.9,"correct","article",1
"210","1",18,19,2,18,"syntax","object","18",1,2,1,1,"acc","Patient",2,1,"BA44",1,587.1,"correct","article",1
"212","1",20,62,2,61,"syntax","object","61",1,2,1,1,"acc","Patient",2,1,"BA44",1,469.8,"correct","article",1
"214","1",22,50,1,50,"syntax","subject","50",1,2,1,1,"nom","Agent",1,2,"BA44",1,534.5,"correct","article",1
"216","1",24,24,1,24,"syntax","subject","24",1,2,1,1,"nom","Agent",1,2,"BA44",1,535.9,"correct","article",1
"218","1",26,26,1,26,"syntax","subject","26",1,1,1,1,"nom","Agent",2,2,"BA44",1,901.3,"correct","article",1
"219","1",27,4,2,3,"syntax","object","3",1,2,1,1,"acc","Patient",2,1,"BA44",1,497.6,"correct","article",1
"221","1",29,11,2,10,"syntax","object","10",1,2,1,1,"acc","Patient",2,1,"BA44",1,698.7,"correct","article",1
"224","1",32,14,2,13,"syntax","object","13",1,1,1,2,"acc","Agent",1,1,"BA44",1,611,"correct","article",1
"225","1",33,16,1,16,"syntax","subject","16",1,1,1,1,"nom","Agent",2,2,"BA44",1,485.8,"correct","article",1
"227","1",35,11,1,11,"syntax","subject","11",1,2,1,2,"nom","Agent",1,1,"BA44",1,587.2,"correct","article",1
"228","1",36,28,2,27,"syntax","object","27",1,1,1,2,"acc","Patient",1,2,"BA44",1,1648.2,"correct","article",1
"230","1",38,23,1,23,"syntax","subject","23",1,1,1,2,"nom","Agent",2,1,"BA44",1,555.4,"correct","article",1
"232","1",40,33,2,32,"syntax","object","32",1,1,1,1,"acc","Patient",1,1,"BA44",1,1170.5,"correct","article",1
"235","1",43,44,2,43,"syntax","object","43",1,2,1,2,"acc","Patient",2,2,"BA44",1,512.3,"correct","article",1
"236","1",44,19,1,19,"syntax","subject","19",1,1,1,2,"nom","Agent",2,1,"BA44",1,562,"correct","article",1
"239","1",47,2,1,2,"syntax","subject","2",1,1,1,2,"nom","Agent",2,1,"BA44",1,587.8,"correct","article",1
"240","1",48,22,2,21,"syntax","object","21",1,2,1,2,"acc","Patient",2,2,"BA44",1,803.1,"correct","article",1
"243","1",51,29,2,28,"syntax","object","28",1,2,1,1,"acc","Patient",2,1,"BA44",1,663.6,"correct","article",1
"246","1",54,1,1,1,"syntax","subject","1",1,1,1,1,"nom","Agent",2,2,"BA44",1,634,"correct","article",1
"247","1",55,15,2,14,"syntax","object","14",1,2,1,1,"acc","Agent",2,2,"BA44",1,579.9,"correct","article",1
"250","1",58,49,1,49,"syntax","subject","49",1,1,1,2,"nom","Agent",2,1,"BA44",1,1105.9,"correct","article",1
"253","1",61,27,1,27,"syntax","subject","27",1,1,1,2,"nom","Agent",2,1,"BA44",1,1154.9,"correct","article",1
"254","1",62,9,2,8,"syntax","object","8",1,1,1,1,"acc","Patient",1,1,"BA44",1,587.8,"correct","article",1
"256","1",64,21,1,21,"syntax","subject","21",1,2,1,2,"nom","Agent",1,1,"BA44",1,619.6,"correct","article",1
"257","1",65,45,2,44,"syntax","object","44",1,1,1,1,"acc","Patient",1,1,"BA44",1,1576.5,"correct","article",1
"260","1",68,12,2,11,"syntax","object","11",1,2,1,2,"acc","Patient",2,2,"BA44",1,541.1,"correct","article",1
"263","1",71,5,1,5,"syntax","subject","5",1,1,1,2,"nom","Agent",2,1,"BA44",1,520.6,"correct","article",1
"265","1",73,45,1,45,"syntax","subject","45",1,1,1,2,"nom","Agent",2,1,"BA44",1,508.7,"correct","article",1
"268","1",76,53,2,52,"syntax","object","52",1,2,1,2,"acc","Agent",2,1,"BA44",1,764.8,"correct","article",1
"271","1",79,4,1,4,"syntax","subject","4",1,1,1,1,"nom","Agent",2,2,"BA44",1,478.5,"correct","article",1
"273","1",81,38,1,38,"syntax","subject","38",1,2,1,1,"nom","Patient",1,1,"BA44",1,864.2,"correct","article",1
"274","1",82,48,2,47,"syntax","object","47",1,2,1,2,"acc","Patient",2,2,"BA44",1,812.4,"correct","article",1
"277","1",85,18,2,17,"syntax","object","17",1,1,1,2,"acc","Patient",1,2,"BA44",1,757,"correct","article",1
"279","1",87,13,1,13,"syntax","subject","13",1,1,1,2,"nom","Agent",2,1,"BA44",1,603.1,"correct","article",1
"282","1",90,3,1,3,"syntax","subject","3",1,2,1,1,"nom","Agent",1,2,"BA44",1,650,"correct","article",1
"284","1",92,51,2,50,"syntax","object","50",1,2,1,1,"acc","Patient",2,1,"BA44",1,509.9,"correct","article",1
"287","1",95,64,1,64,"syntax","subject","64",1,1,1,1,"nom","Agent",2,2,"BA44",1,605.5,"correct","article",1
"289","1",97,13,2,12,"syntax","object","12",1,1,1,1,"acc","Patient",1,1,"BA44",1,855.8,"correct","article",1
"290","1",98,22,1,22,"syntax","subject","22",1,1,1,1,"nom","Agent",2,2,"BA44",1,586.1,"correct","article",1
"293","1",101,50,2,49,"syntax","object","49",1,1,1,2,"acc","Patient",1,2,"BA44",1,895.4,"correct","article",1
"294","1",102,9,1,9,"syntax","subject","9",1,1,1,2,"nom","Agent",2,1,"BA44",1,741.9,"correct","article",1
"296","1",104,63,1,63,"syntax","subject","63",1,2,1,2,"nom","Agent",1,1,"BA44",1,993.9,"correct","article",1
"297","1",105,25,2,24,"syntax","object","24",1,2,1,1,"acc","Patient",2,1,"BA44",1,503.3,"correct","article",1
"299","1",107,7,1,7,"syntax","subject","7",1,2,1,2,"nom","Agent",1,1,"BA44",1,612.3,"correct","article",1
"302","1",110,47,2,46,"syntax","object","46",1,2,1,1,"acc","Patient",2,1,"BA44",1,534.8,"correct","article",1
"303","1",111,14,1,14,"syntax","subject","14",1,2,1,1,"nom","Agent",1,2,"BA44",1,591.8,"correct","article",1
"305","1",113,3,2,2,"syntax","object","2",1,1,1,2,"acc","Patient",1,2,"BA44",1,557.1,"correct","article",1
"308","1",116,66,1,66,"syntax","subject","66",1,1,1,2,"nom","Agent",2,1,"BA44",1,761.9,"correct","article",1
"309","1",117,27,2,26,"syntax","object","26",1,1,1,1,"acc","Patient",1,1,"BA44",1,618.5,"correct","article",1
"312","1",120,8,1,8,"syntax","subject","8",1,1,1,1,"nom","Agent",2,2,"BA44",1,645.5,"correct","article",1
"313","1",121,68,2,67,"syntax","object","67",1,2,1,1,"acc","Patient",2,1,"BA44",1,1099.5,"correct","article",1
"315","1",123,52,1,52,"syntax","subject","52",1,2,1,2,"nom","Patient",1,2,"BA44",1,563,"correct","article",1
"318","1",126,32,1,32,"syntax","subject","32",1,1,1,1,"nom","Agent",2,2,"BA44",1,929.1,"correct","article",1
"319","1",127,26,2,25,"syntax","object","25",1,2,1,2,"acc","Agent",2,1,"BA44",1,519.2,"correct","article",1
"321","1",129,36,2,35,"syntax","object","35",1,1,1,1,"acc","Patient",1,1,"BA44",1,981,"correct","article",1
"324","1",132,34,1,34,"syntax","subject","34",1,2,1,2,"nom","Agent",1,1,"BA44",1,1111.6,"correct","article",1
"326","1",134,18,1,18,"syntax","subject","18",1,2,1,1,"nom","Agent",1,2,"BA44",1,591.8,"correct","article",1
"328","1",136,46,2,45,"syntax","object","45",1,1,1,2,"acc","Patient",1,2,"BA44",1,612.3,"correct","article",1
"329","1",137,37,1,37,"syntax","subject","37",1,1,1,2,"nom","Agent",2,1,"BA44",1,1329.6,"correct","article",1
"331","1",139,43,1,43,"syntax","subject","43",1,2,1,2,"acc","Agent",2,1,"BA44",1,931.7,"incorrect","article",0
"334","1",142,21,2,20,"syntax","object","20",1,2,1,1,"acc","Patient",2,1,"BA44",1,915.5,"correct","article",1
"337","1",145,8,2,7,"syntax","object","7",1,2,1,2,"acc","Patient",2,2,"BA44",1,536.9,"correct","article",1
"338","1",146,15,1,15,"syntax","subject","15",1,2,1,2,"nom","Agent",1,1,"BA44",1,695.8,"correct","article",1
"341","1",149,31,1,31,"syntax","subject","31",1,2,1,2,"nom","Agent",1,1,"BA44",1,771.9,"correct","article",1
"342","1",150,20,2,19,"syntax","object","19",1,1,1,2,"acc","Patient",1,2,"BA44",1,955.5,"correct","article",1
"344","1",152,67,2,66,"syntax","object","66",1,1,1,2,"acc","Patient",1,2,"BA44",1,586.6,"correct","article",1
"345","1",153,10,1,10,"syntax","subject","10",1,2,1,1,"nom","Agent",1,2,"BA44",1,575.5,"correct","article",1
"347","1",155,24,2,23,"syntax","object","23",1,1,1,2,"acc","Agent",1,1,"BA44",1,844.6,"correct","article",1
"350","1",158,28,1,28,"syntax","subject","28",1,2,1,1,"nom","Agent",1,2,"BA44",1,735.3,"correct","article",1
"351","1",159,64,2,63,"syntax","object","63",1,2,1,2,"nom","Agent",1,1,"BA44",1,648.3,"incorrect","article",0
"353","1",161,49,2,48,"syntax","object","48",1,1,1,1,"acc","Agent",1,2,"BA44",1,509.5,"correct","article",1
"354","1",162,17,1,17,"syntax","subject","17",1,1,1,2,"nom","Agent",2,1,"BA44",1,1026.5,"correct","article",1
"356","1",164,12,1,12,"syntax","subject","12",1,1,1,1,"nom","Agent",2,2,"BA44",1,546.9,"correct","article",1
"357","1",165,39,2,38,"syntax","object","38",1,2,1,1,"acc","Patient",2,1,"BA44",1,636.5,"correct","article",1
"359","1",167,61,1,61,"syntax","subject","61",1,2,1,1,"nom","Agent",1,2,"BA44",1,741.2,"correct","article",1
"361","1",169,10,2,9,"syntax","object","9",1,1,1,2,"acc","Patient",1,2,"BA44",1,536.6,"correct","article",1
"362","1",170,60,1,60,"syntax","subject","60",1,2,1,2,"nom","Agent",1,1,"BA44",1,549,"correct","article",1
"365","1",173,17,2,16,"syntax","object","16",1,1,1,1,"acc","Patient",1,1,"BA44",1,927.6,"correct","article",1
"367","1",175,23,2,22,"syntax","object","22",1,1,1,1,"acc","Patient",1,1,"BA44",1,524.5,"correct","article",1
"369","1",177,5,2,4,"syntax","object","4",1,1,1,1,"acc","Patient",1,1,"BA44",1,523,"correct","article",1
"371","1",179,35,2,34,"syntax","object","34",1,2,1,2,"acc","Patient",2,2,"BA44",1,820.2,"correct","article",1
"374","1",182,2,2,1,"syntax","object","1",1,1,1,1,"acc","Patient",1,1,"BA44",1,773.3,"correct","article",1
"376","1",184,38,2,37,"syntax","object","37",1,1,1,2,"acc","Patient",1,2,"BA44",1,713.8,"correct","article",1
"377","1",185,20,1,20,"syntax","subject","20",1,2,1,1,"nom","Agent",1,2,"BA44",1,556.5,"correct","article",1
"379","1",187,6,2,5,"syntax","object","5",1,1,1,2,"acc","Patient",1,2,"BA44",1,662.3,"correct","article",1
"382","1",190,46,1,46,"syntax","subject","46",1,2,1,1,"nom","Agent",1,2,"BA44",1,1323.9,"correct","article",1
"386","1",2,49,2,48,"syntax","object","48",1,2,1,1,"acc","Patient",2,1,"BA45",2,NA,"correct","article",1
"388","1",4,38,1,38,"syntax","subject","38",1,1,1,1,"nom","Agent",2,2,"BA45",2,463,"correct","article",1
"390","1",6,13,1,13,"syntax","subject","13",1,2,1,2,"nom","Agent",1,1,"BA45",2,651.3,"correct","article",1
"392","1",8,20,2,19,"syntax","object","19",1,2,1,2,"acc","Patient",2,2,"BA45",2,485,"correct","article",1
"393","1",9,43,1,43,"syntax","subject","43",1,1,1,2,"nom","Agent",2,1,"BA45",2,513.5,"correct","article",1
"395","1",11,61,2,60,"syntax","object","60",1,1,1,2,"acc","Patient",1,2,"BA45",2,741.6,"correct","article",1
"397","1",13,4,1,4,"syntax","subject","4",1,2,1,1,"nom","Agent",1,2,"BA45",2,724.3,"correct","article",1
"399","1",15,44,1,44,"syntax","subject","44",1,2,1,1,"nom","Agent",1,2,"BA45",2,608.3,"correct","article",1
"400","1",16,46,2,45,"syntax","object","45",1,2,1,2,"acc","Agent",2,1,"BA45",2,478.2,"correct","article",1
"402","1",18,17,1,17,"syntax","subject","17",1,2,1,2,"nom","Agent",1,1,"BA45",2,549.9,"correct","article",1
"404","1",20,17,2,16,"syntax","object","16",1,2,1,1,"acc","Patient",2,1,"BA45",2,494,"correct","article",1
"405","1",21,35,1,35,"syntax","subject","35",1,2,1,1,"nom","Agent",1,2,"BA45",2,686.1,"correct","article",1
"407","1",23,63,1,63,"syntax","subject","63",1,1,1,2,"nom","Agent",2,1,"BA45",2,671.2,"correct","article",1
"410","1",26,33,2,32,"syntax","object","32",1,2,1,1,"acc","Patient",2,1,"BA45",2,520.8,"correct","article",1
"413","1",29,12,2,11,"syntax","object","11",1,1,1,2,"acc","Patient",1,2,"BA45",2,802.4,"correct","article",1
"416","1",32,11,2,10,"syntax","object","10",1,1,1,1,"acc","Patient",1,1,"BA45",2,557.4,"correct","article",1
"417","1",33,46,1,46,"syntax","subject","46",1,1,1,1,"nom","Agent",2,2,"BA45",2,757,"correct","article",1
"419","1",35,25,1,25,"syntax","subject","25",1,1,1,2,"nom","Agent",2,1,"BA45",2,1170.9,"correct","article",1
"420","1",36,51,2,50,"syntax","object","50",1,1,1,1,"acc","Patient",1,1,"BA45",2,565.7,"correct","article",1
"422","1",38,24,2,23,"syntax","object","23",1,2,1,2,"acc","Agent",2,1,"BA45",2,579.8,"correct","article",1
"424","1",40,12,1,12,"syntax","subject","12",1,2,1,1,"nom","Patient",1,1,"BA45",2,548.6,"correct","article",1
"427","1",43,6,2,5,"syntax","object","5",1,2,1,2,"acc","Patient",2,2,"BA45",2,975.9,"correct","article",1
"428","1",44,28,1,28,"syntax","subject","28",1,1,1,1,"nom","Agent",2,2,"BA45",2,540.2,"correct","article",1
"430","1",46,68,2,67,"syntax","object","67",1,1,1,1,"acc","Patient",1,1,"BA45",2,562.9,"correct","article",1
"432","1",48,52,1,52,"syntax","subject","52",1,1,1,2,"nom","Patient",2,2,"BA45",2,544,"correct","article",1
"433","1",49,26,2,25,"syntax","object","25",1,1,1,2,"acc","Patient",1,2,"BA45",2,527.6,"correct","article",1
"435","1",51,27,2,26,"syntax","object","26",1,2,1,1,"acc","Patient",2,1,"BA45",2,513.2,"correct","article",1
"436","1",52,50,1,50,"syntax","subject","50",1,1,1,1,"nom","Agent",2,2,"BA45",2,468,"correct","article",1
"438","1",54,53,2,52,"syntax","object","52",1,1,1,2,"acc","Agent",1,1,"BA45",2,561.8,"correct","article",1
"440","1",56,2,1,2,"syntax","subject","2",1,2,1,2,"nom","Agent",1,1,"BA45",2,555.1,"correct","article",1
"441","1",57,29,2,28,"syntax","object","28",1,1,1,1,"acc","Patient",1,1,"BA45",2,472.7,"correct","article",1
"444","1",60,22,1,22,"syntax","subject","22",1,2,1,1,"nom","Agent",1,2,"BA45",2,625.7,"correct","article",1
"446","1",62,22,2,21,"syntax","object","21",1,1,1,2,"acc","Patient",1,2,"BA45",2,629.8,"correct","article",1
"449","1",65,19,1,19,"syntax","subject","19",1,2,1,2,"nom","Agent",1,1,"BA45",2,562.5,"correct","article",1
"450","1",66,19,2,18,"syntax","object","18",1,1,1,1,"acc","Patient",1,1,"BA45",2,665.1,"correct","article",1
"452","1",68,5,1,5,"syntax","subject","5",1,2,1,2,"nom","Agent",1,1,"BA45",2,618.4,"correct","article",1
"455","1",71,28,2,27,"syntax","object","27",1,2,1,2,"acc","Patient",2,2,"BA45",2,698,"correct","article",1
"456","1",72,49,1,49,"syntax","subject","49",1,2,1,2,"nom","Agent",1,1,"BA45",2,534,"correct","article",1
"458","1",74,10,1,10,"syntax","subject","10",1,1,1,1,"nom","Agent",2,2,"BA45",2,583,"correct","article",1
"459","1",75,2,2,1,"syntax","object","1",1,2,1,1,"acc","Patient",2,1,"BA45",2,593.1,"correct","article",1
"461","1",77,8,2,7,"syntax","object","7",1,1,1,2,"acc","Patient",1,2,"BA45",2,860.8,"correct","article",1
"462","1",78,11,1,11,"syntax","subject","11",1,1,1,2,"nom","Agent",2,1,"BA45",2,568.5,"correct","article",1
"465","1",81,9,2,8,"syntax","object","8",1,2,1,1,"acc","Patient",2,1,"BA45",2,522.7,"correct","article",1
"466","1",82,9,1,9,"syntax","subject","9",1,2,1,2,"nom","Agent",1,1,"BA45",2,637.2,"correct","article",1
"468","1",84,3,1,3,"syntax","subject","3",1,1,1,1,"nom","Agent",2,2,"BA45",2,667.3,"correct","article",1
"470","1",86,15,1,15,"syntax","subject","15",1,1,1,2,"nom","Agent",2,1,"BA45",2,1030.4,"correct","article",1
"471","1",87,32,2,31,"syntax","object","31",1,1,1,2,"acc","Patient",1,2,"BA45",2,675.1,"correct","article",1
"473","1",89,48,2,47,"syntax","object","47",1,1,1,2,"acc","Patient",1,2,"BA45",2,589.2,"correct","article",1
"474","1",90,16,1,16,"syntax","subject","16",1,2,1,1,"nom","Agent",1,2,"BA45",2,556.4,"correct","article",1
"477","1",93,66,1,66,"syntax","subject","66",1,2,1,2,"nom","Agent",1,1,"BA45",2,511.4,"correct","article",1
"479","1",95,35,2,34,"syntax","object","34",1,1,1,2,"acc","Agent",1,1,"BA45",2,594.8,"correct","article",1
"482","1",98,10,2,9,"syntax","object","9",1,2,1,2,"acc","Patient",2,2,"BA45",2,643.8,"correct","article",1
"485","1",101,61,1,61,"syntax","subject","61",1,1,1,1,"nom","Agent",2,2,"BA45",2,816.4,"correct","article",1
"487","1",103,18,1,18,"syntax","subject","18",1,1,1,1,"nom","Agent",2,2,"BA45",2,676.2,"correct","article",1
"490","1",106,15,2,14,"syntax","object","14",1,1,1,1,"acc","Patient",1,1,"BA45",2,627.9,"correct","article",1
"493","1",109,50,2,49,"syntax","object","49",1,2,1,2,"acc","Patient",2,2,"BA45",2,737.9,"correct","article",1
"494","1",110,24,1,24,"syntax","subject","24",1,1,1,1,"nom","Agent",2,2,"BA45",2,1127.1,"correct","article",1
"496","1",112,4,2,3,"syntax","object","3",1,1,1,1,"acc","Patient",1,1,"BA45",2,844.4,"correct","article",1
"499","1",115,27,1,27,"syntax","subject","27",1,2,1,2,"nom","Agent",1,1,"BA45",2,647.2,"correct","article",1
"501","1",117,45,2,44,"syntax","object","44",1,2,1,1,"acc","Patient",2,1,"BA45",2,497.7,"correct","article",1
"502","1",118,64,1,64,"syntax","subject","64",1,2,1,1,"nom","Agent",1,2,"BA45",2,567,"correct","article",1
"505","1",121,13,2,12,"syntax","object","12",1,2,1,1,"acc","Patient",2,1,"BA45",2,524.7,"correct","article",1
"506","1",122,8,1,8,"syntax","subject","8",1,2,1,1,"nom","Agent",1,2,"BA45",2,622.9,"correct","article",1
"508","1",124,7,1,7,"syntax","subject","7",1,1,1,2,"nom","Agent",2,1,"BA45",2,678.6,"correct","article",1
"509","1",125,44,2,43,"syntax","object","43",1,1,1,2,"acc","Patient",1,2,"BA45",2,572.6,"correct","article",1
"511","1",127,67,2,66,"syntax","object","66",1,2,1,2,"acc","Patient",2,2,"BA45",2,1025.4,"correct","article",1
"513","1",129,21,1,21,"syntax","subject","21",1,1,1,2,"nom","Patient",2,2,"BA45",2,624,"correct","article",1
"516","1",132,3,2,2,"syntax","object","2",1,2,1,2,"acc","Patient",2,2,"BA45",2,692.1,"correct","article",1
"517","1",133,26,1,26,"syntax","subject","26",1,2,1,1,"nom","Agent",1,2,"BA45",2,606,"correct","article",1
"519","1",135,48,1,48,"syntax","subject","48",1,2,1,1,"nom","Agent",1,2,"BA45",2,729.1,"correct","article",1
"521","1",137,37,1,37,"syntax","subject","37",1,2,1,2,"nom","Agent",1,1,"BA45",2,632.9,"correct","article",1
"524","1",140,20,1,20,"syntax","subject","20",1,1,1,1,"nom","Agent",2,2,"BA45",2,505.6,"correct","article",1
"526","1",142,18,2,17,"syntax","object","17",1,2,1,2,"acc","Patient",2,2,"BA45",2,541.5,"correct","article",1
"527","1",143,32,1,32,"syntax","subject","32",1,2,1,1,"nom","Agent",1,2,"BA45",2,524.7,"correct","article",1
"529","1",145,64,2,63,"syntax","object","63",1,1,1,2,"acc","Agent",1,1,"BA45",2,604.9,"correct","article",1
"530","1",146,45,1,45,"syntax","subject","45",1,2,1,2,"nom","Agent",1,1,"BA45",2,557,"correct","article",1
"532","1",148,5,2,4,"syntax","object","4",1,2,1,1,"acc","Patient",2,1,"BA45",2,696,"correct","article",1
"534","1",150,60,1,60,"syntax","subject","60",1,1,1,2,"nom","Agent",2,1,"BA45",2,522.2,"correct","article",1
"537","1",153,67,1,67,"syntax","subject","67",1,1,1,1,"nom","Agent",2,2,"BA45",2,549.6,"correct","article",1
"540","1",156,62,2,61,"syntax","object","61",1,1,1,1,"acc","Patient",1,1,"BA45",2,671.3,"correct","article",1
"542","1",158,47,1,47,"syntax","subject","47",1,1,1,2,"nom","Agent",2,1,"BA45",2,646.1,"correct","article",1
"544","1",160,14,2,13,"syntax","object","13",1,2,1,2,"acc","Patient",2,2,"BA45",2,517.2,"correct","article",1
"547","1",163,31,1,31,"syntax","subject","31",1,1,1,2,"nom","Agent",2,1,"BA45",2,684.2,"correct","article",1
"548","1",164,36,2,35,"syntax","object","35",1,2,1,1,"acc","Patient",2,1,"BA45",2,454.5,"correct","article",1
"551","1",167,25,2,24,"syntax","object","24",1,1,1,1,"acc","Patient",1,1,"BA45",2,737,"correct","article",1
"554","1",170,39,2,38,"syntax","object","38",1,1,1,1,"acc","Patient",1,1,"BA45",2,598.8,"correct","article",1
"557","1",173,1,1,1,"syntax","subject","1",1,2,1,1,"nom","Agent",1,2,"BA45",2,691.9,"correct","article",1
"559","1",175,16,2,15,"syntax","object","15",1,1,1,2,"acc","Patient",1,2,"BA45",2,637,"correct","article",1
"561","1",177,65,2,64,"syntax","object","64",1,2,1,1,"acc","Patient",2,1,"BA45",2,625.2,"correct","article",1
"562","1",178,34,1,34,"syntax","subject","34",1,1,1,2,"nom","Agent",2,1,"BA45",2,774.1,"correct","article",1
"565","1",181,14,1,14,"syntax","subject","14",1,1,1,1,"nom","Agent",2,2,"BA45",2,534.4,"correct","article",1
"567","1",183,21,2,20,"syntax","object","20",1,1,1,1,"acc","Patient",1,1,"BA45",2,729.8,"correct","article",1
"570","1",186,38,2,37,"syntax","object","37",1,2,1,2,"acc","Patient",2,2,"BA45",2,556.3,"correct","article",1
"572","1",188,23,1,23,"syntax","subject","23",1,2,1,2,"nom","Patient",1,2,"BA45",2,839.7,"correct","article",1
"574","1",190,23,2,22,"syntax","object","22",1,2,1,1,"acc","Patient",2,1,"BA45",2,547.4,"correct","article",1
"576","1",192,47,2,46,"syntax","object","46",1,1,1,1,"acc","Patient",1,1,"BA45",2,533.5,"correct","article",1
"577","10",1,17,2,16,"syntax","object","16",1,2,1,2,"acc","Patient",2,2,"BA44",1,825,"correct","article",1
"579","10",3,14,2,13,"syntax","object","13",1,1,1,1,"acc","Patient",1,1,"BA44",1,1139.3,"correct","article",1
"580","10",4,61,1,61,"syntax","subject","61",1,1,1,2,"nom","Agent",2,1,"BA44",1,636,"correct","article",1
"582","10",6,7,1,7,"syntax","subject","7",1,2,1,1,"nom","Agent",1,2,"BA44",1,998.9,"correct","article",1
"585","10",9,3,1,3,"syntax","subject","3",1,1,1,2,"acc","Patient",1,2,"BA44",1,767.8,"incorrect","article",0
"587","10",11,5,1,5,"syntax","subject","5",1,1,1,1,"acc","Patient",1,1,"BA44",1,784.7,"incorrect","article",0
"589","10",13,19,1,19,"syntax","subject","19",1,1,1,1,"acc","Patient",1,1,"BA44",1,808.5,"incorrect","article",0
"591","10",15,25,1,25,"syntax","subject","25",1,2,1,1,"nom","Agent",1,2,"BA44",1,827.9,"correct","article",1
"593","10",17,27,2,26,"syntax","object","26",1,2,1,2,"acc","Patient",2,2,"BA44",1,764.5,"correct","article",1
"594","10",18,38,1,38,"syntax","subject","38",1,1,1,2,"acc","Patient",1,2,"BA44",1,566.1,"incorrect","article",0
"597","10",21,25,2,24,"syntax","object","24",1,1,1,2,"acc","Patient",1,2,"BA44",1,405.1,"correct","article",1
"598","10",22,15,1,15,"syntax","subject","15",1,2,1,1,"nom","Agent",1,2,"BA44",1,566.8,"correct","article",1
"601","10",25,45,2,44,"syntax","object","44",1,2,1,2,"nom","Agent",1,1,"BA44",1,284.3,"incorrect","article",0
"604","10",28,1,1,1,"syntax","subject","1",1,2,1,2,"nom","Agent",1,1,"BA44",1,563.8,"correct","article",1
"607","10",31,66,1,66,"syntax","subject","66",1,1,1,1,"nom","Agent",2,2,"BA44",1,702.3,"correct","article",1
"609","10",33,21,1,21,"syntax","subject","21",1,2,1,1,"nom","Agent",1,2,"BA44",1,558.8,"correct","article",1
"612","10",36,49,1,49,"syntax","subject","49",1,1,1,1,"nom","Agent",2,2,"BA44",1,776.3,"correct","article",1
"613","10",37,10,2,9,"syntax","object","9",1,1,1,1,"acc","Patient",1,1,"BA44",1,665.3,"correct","article",1
"616","10",40,12,1,12,"syntax","subject","12",1,2,1,2,"nom","Patient",1,2,"BA44",1,1060.3,"correct","article",1
"619","10",43,61,2,60,"syntax","object","60",1,2,1,1,"acc","Patient",2,1,"BA44",1,676.7,"correct","article",1
"620","10",44,31,1,31,"syntax","subject","31",1,2,1,1,"nom","Agent",1,2,"BA44",1,309.9,"correct","article",1
"622","10",46,63,1,63,"syntax","subject","63",1,2,1,1,"nom","Agent",1,2,"BA44",1,525.9,"correct","article",1
"623","10",47,15,2,14,"syntax","object","14",1,1,1,2,"acc","Patient",1,2,"BA44",1,831.9,"correct","article",1
"625","10",49,11,1,11,"syntax","subject","11",1,2,1,1,"acc","Patient",2,1,"BA44",1,936.1,"incorrect","article",0
"628","10",52,17,1,17,"syntax","subject","17",1,1,1,1,"nom","Agent",2,2,"BA44",1,987.6,"correct","article",1
"630","10",54,16,2,15,"syntax","object","15",1,2,1,1,"nom","Agent",1,2,"BA44",1,784.4,"incorrect","article",0
"632","10",56,29,2,28,"syntax","object","28",1,1,1,2,"acc","Patient",1,2,"BA44",1,816.2,"correct","article",1
"634","10",58,28,2,27,"syntax","object","27",1,1,1,1,"acc","Patient",1,1,"BA44",1,484.3,"correct","article",1
"635","10",59,44,1,44,"syntax","subject","44",1,2,1,2,"nom","Agent",1,1,"BA44",1,575.2,"correct","article",1
"638","10",62,32,1,32,"syntax","subject","32",1,2,1,2,"nom","Agent",1,1,"BA44",1,518.9,"correct","article",1
"639","10",63,32,2,31,"syntax","object","31",1,2,1,1,"acc","Agent",2,2,"BA44",1,576.2,"correct","article",1
"641","10",65,46,1,46,"syntax","subject","46",1,1,1,2,"nom","Agent",2,1,"BA44",1,556,"correct","article",1
"643","10",67,13,1,13,"syntax","subject","13",1,1,1,1,"nom","Agent",2,2,"BA44",1,559.3,"correct","article",1
"644","10",68,53,2,52,"syntax","object","52",1,2,1,1,"nom","Agent",1,2,"BA44",1,853.2,"incorrect","article",0
"646","10",70,34,1,34,"syntax","subject","34",1,2,1,1,"nom","Agent",1,2,"BA44",1,784.6,"correct","article",1
"648","10",72,65,2,64,"syntax","object","64",1,2,1,2,"acc","Patient",2,2,"BA44",1,543.5,"correct","article",1
"650","10",74,64,2,63,"syntax","object","63",1,2,1,1,"acc","Patient",2,1,"BA44",1,503.6,"correct","article",1
"652","10",76,19,2,18,"syntax","object","18",1,1,1,2,"acc","Patient",1,2,"BA44",1,416.6,"correct","article",1
"655","10",79,2,1,2,"syntax","subject","2",1,1,1,1,"nom","Agent",2,2,"BA44",1,504.7,"correct","article",1
"656","10",80,13,2,12,"syntax","object","12",1,2,1,2,"acc","Agent",2,1,"BA44",1,638.5,"correct","article",1
"658","10",82,44,2,43,"syntax","object","43",1,2,1,1,"acc","Patient",2,1,"BA44",1,576,"correct","article",1
"659","10",83,67,1,67,"syntax","subject","67",1,1,1,2,"nom","Agent",2,1,"BA44",1,449.5,"correct","article",1
"661","10",85,37,1,37,"syntax","subject","37",1,1,1,1,"nom","Agent",2,2,"BA44",1,499.7,"correct","article",1
"662","10",86,39,2,38,"syntax","object","38",1,1,1,2,"acc","Patient",1,2,"BA44",1,345.1,"correct","article",1
"664","10",88,26,2,25,"syntax","object","25",1,2,1,1,"acc","Patient",2,1,"BA44",1,608.8,"correct","article",1
"666","10",90,2,2,1,"syntax","object","1",1,2,1,2,"acc","Patient",2,2,"BA44",1,536.6,"correct","article",1
"668","10",92,45,1,45,"syntax","subject","45",1,1,1,1,"nom","Patient",2,1,"BA44",1,551.8,"correct","article",1
"671","10",95,51,2,50,"syntax","object","50",1,1,1,2,"acc","Patient",1,2,"BA44",1,744.2,"correct","article",1
"672","10",96,48,1,48,"syntax","subject","48",1,2,1,2,"nom","Agent",1,1,"BA44",1,698.3,"correct","article",1
"674","10",98,20,2,19,"syntax","object","19",1,1,1,1,"acc","Patient",1,1,"BA44",1,1125.7,"correct","article",1
"675","10",99,4,1,4,"syntax","subject","4",1,2,1,2,"nom","Agent",1,1,"BA44",1,542.6,"correct","article",1
"678","10",102,52,1,52,"syntax","subject","52",1,2,1,1,"nom","Agent",1,2,"BA44",1,491.2,"correct","article",1
"681","10",105,6,2,5,"syntax","object","5",1,1,1,1,"acc","Patient",1,1,"BA44",1,855.2,"correct","article",1
"682","10",106,47,1,47,"syntax","subject","47",1,2,1,1,"nom","Agent",1,2,"BA44",1,378.3,"correct","article",1
"685","10",109,23,1,23,"syntax","subject","23",1,1,1,1,"nom","Agent",2,2,"BA44",1,726.8,"correct","article",1
"687","10",111,49,2,48,"syntax","object","48",1,2,1,2,"acc","Patient",2,2,"BA44",1,722.2,"correct","article",1
"688","10",112,27,1,27,"syntax","subject","27",1,1,1,1,"nom","Agent",2,2,"BA44",1,582.1,"correct","article",1
"690","10",114,10,1,10,"syntax","subject","10",1,1,1,2,"nom","Agent",2,1,"BA44",1,559.7,"correct","article",1
"691","10",115,33,2,32,"syntax","object","32",1,2,1,2,"acc","Patient",2,2,"BA44",1,609.9,"correct","article",1
"693","10",117,9,2,8,"syntax","object","8",1,2,1,2,"nom","Agent",1,1,"BA44",1,671.7,"incorrect","article",0
"695","10",119,20,1,20,"syntax","subject","20",1,1,1,2,"nom","Patient",2,2,"BA44",1,NA,"correct","article",1
"697","10",121,50,2,49,"syntax","object","49",1,1,1,1,"acc","Patient",1,1,"BA44",1,438.9,"correct","article",1
"700","10",124,16,1,16,"syntax","subject","16",1,2,1,2,"nom","Agent",1,1,"BA44",1,716,"correct","article",1
"703","10",127,23,2,22,"syntax","object","22",1,2,1,2,"acc","Patient",2,2,"BA44",1,677.3,"correct","article",1
"705","10",129,24,1,24,"syntax","subject","24",1,1,1,2,"nom","Agent",2,1,"BA44",1,705.5,"correct","article",1
"706","10",130,3,2,2,"syntax","object","2",1,1,1,1,"acc","Patient",1,1,"BA44",1,420.6,"correct","article",1
"708","10",132,36,2,35,"syntax","object","35",1,2,1,2,"acc","Patient",2,2,"BA44",1,644.1,"correct","article",1
"711","10",135,64,1,64,"syntax","subject","64",1,2,1,2,"nom","Agent",1,1,"BA44",1,420.3,"correct","article",1
"712","10",136,35,2,34,"syntax","object","34",1,2,1,1,"acc","Patient",2,1,"BA44",1,776.3,"correct","article",1
"715","10",139,67,2,66,"syntax","object","66",1,1,1,1,"acc","Patient",1,1,"BA44",1,446,"correct","article",1
"716","10",140,50,1,50,"syntax","subject","50",1,1,1,2,"nom","Agent",2,1,"BA44",1,476.3,"correct","article",1
"719","10",143,18,1,18,"syntax","subject","18",1,1,1,2,"acc","Patient",1,2,"BA44",1,332.1,"incorrect","article",0
"722","10",146,21,2,20,"syntax","object","20",1,1,1,2,"acc","Patient",1,2,"BA44",1,646.2,"correct","article",1
"723","10",147,35,1,35,"syntax","subject","35",1,2,1,2,"nom","Agent",1,1,"BA44",1,499,"correct","article",1
"726","10",150,11,2,10,"syntax","object","10",1,1,1,2,"acc","Patient",1,2,"BA44",1,639.2,"correct","article",1
"727","10",151,60,1,60,"syntax","subject","60",1,2,1,1,"nom","Agent",1,2,"BA44",1,489.4,"correct","article",1
"730","10",154,62,2,61,"syntax","object","61",1,1,1,2,"acc","Patient",1,2,"BA44",1,528,"correct","article",1
"731","10",155,9,1,9,"syntax","subject","9",1,1,1,1,"nom","Agent",2,2,"BA44",1,632.4,"correct","article",1
"733","10",157,26,1,26,"syntax","subject","26",1,2,1,2,"nom","Agent",1,1,"BA44",1,441,"correct","article",1
"734","10",158,12,2,11,"syntax","object","11",1,2,1,1,"acc","Patient",2,1,"BA44",1,637.6,"correct","article",1
"737","10",161,8,1,8,"syntax","subject","8",1,2,1,2,"nom","Agent",1,1,"BA44",1,531.7,"correct","article",1
"738","10",162,47,2,46,"syntax","object","46",1,1,1,2,"acc","Patient",1,2,"BA44",1,374,"correct","article",1
"740","10",164,43,1,43,"syntax","subject","43",1,2,1,1,"nom","Agent",1,2,"BA44",1,385.9,"correct","article",1
"742","10",166,22,2,21,"syntax","object","21",1,2,1,1,"acc","Patient",2,1,"BA44",1,551.9,"correct","article",1
"743","10",167,22,1,22,"syntax","subject","22",1,2,1,2,"nom","Agent",1,1,"BA44",1,330.4,"correct","article",1
"746","10",170,46,2,45,"syntax","object","45",1,1,1,1,"acc","Patient",1,1,"BA44",1,564,"correct","article",1
"747","10",171,28,1,28,"syntax","subject","28",1,1,1,2,"nom","Agent",2,1,"BA44",1,424.1,"correct","article",1
"749","10",173,4,2,3,"syntax","object","3",1,1,1,2,"acc","Patient",1,2,"BA44",1,337.7,"correct","article",1
"750","10",174,14,1,14,"syntax","subject","14",1,1,1,2,"nom","Agent",2,1,"BA44",1,677.6,"correct","article",1
"753","10",177,38,2,37,"syntax","object","37",1,1,1,1,"acc","Patient",1,1,"BA44",1,478,"correct","article",1
"756","10",180,5,2,4,"syntax","object","4",1,2,1,2,"acc","Patient",2,2,"BA44",1,677.1,"correct","article",1
"758","10",182,24,2,23,"syntax","object","23",1,1,1,1,"acc","Agent",1,2,"BA44",1,482.9,"correct","article",1
"760","10",184,8,2,7,"syntax","object","7",1,2,1,1,"acc","Patient",2,1,"BA44",1,524.1,"correct","article",1
"763","10",187,68,2,67,"syntax","object","67",1,1,1,2,"acc","Patient",1,2,"BA44",1,522.5,"correct","article",1
"766","10",190,18,2,17,"syntax","object","17",1,1,1,1,"acc","Patient",1,1,"BA44",1,410.9,"correct","article",1
"768","10",192,48,2,47,"syntax","object","47",1,2,1,1,"acc","Patient",2,1,"BA44",1,529.9,"correct","article",1
"769","10",1,45,2,44,"syntax","object","44",1,1,1,1,"acc","Agent",1,2,"sham",2,532.9,"correct","article",1
"771","10",3,62,2,61,"syntax","object","61",1,2,1,1,"acc","Patient",2,1,"sham",2,545.2,"correct","article",1
"772","10",4,3,1,3,"syntax","subject","3",1,2,1,1,"nom","Agent",1,2,"sham",2,621.3,"correct","article",1
"774","10",6,32,2,31,"syntax","object","31",1,2,1,2,"acc","Patient",2,2,"sham",2,653.8,"correct","article",1
"776","10",8,48,1,48,"syntax","subject","48",1,1,1,1,"nom","Agent",2,2,"sham",2,741.6,"correct","article",1
"778","10",10,38,1,38,"syntax","subject","38",1,2,1,1,"nom","Agent",1,2,"sham",2,392.5,"correct","article",1
"779","10",11,47,2,46,"syntax","object","46",1,2,1,1,"acc","Patient",2,1,"sham",2,574.1,"correct","article",1
"781","10",13,9,2,8,"syntax","object","8",1,1,1,1,"acc","Patient",1,1,"sham",2,382.8,"correct","article",1
"783","10",15,3,2,2,"syntax","object","2",1,1,1,2,"acc","Patient",1,2,"sham",2,445.2,"correct","article",1
"784","10",16,12,1,12,"syntax","subject","12",1,1,1,1,"nom","Patient",2,1,"sham",2,497.2,"correct","article",1
"787","10",19,9,1,9,"syntax","subject","9",1,1,1,2,"nom","Agent",2,1,"sham",2,579.7,"correct","article",1
"788","10",20,15,2,14,"syntax","object","14",1,2,1,1,"acc","Patient",2,1,"sham",2,597.2,"correct","article",1
"791","10",23,27,1,27,"syntax","subject","27",1,1,1,2,"nom","Agent",2,1,"sham",2,576.1,"correct","article",1
"792","10",24,27,2,26,"syntax","object","26",1,1,1,1,"acc","Patient",1,1,"sham",2,960.2,"correct","article",1
"795","10",27,63,1,63,"syntax","subject","63",1,2,1,2,"nom","Agent",1,1,"sham",2,715.2,"correct","article",1
"796","10",28,44,2,43,"syntax","object","43",1,2,1,2,"acc","Patient",2,2,"sham",2,526.2,"correct","article",1
"798","10",30,8,2,7,"syntax","object","7",1,2,1,2,"acc","Patient",2,2,"sham",2,610.5,"correct","article",1
"800","10",32,38,2,37,"syntax","object","37",1,1,1,2,"acc","Patient",1,2,"sham",2,542.1,"correct","article",1
"802","10",34,46,2,45,"syntax","object","45",1,1,1,2,"acc","Agent",1,1,"sham",2,366,"correct","article",1
"805","10",37,23,2,22,"syntax","object","22",1,1,1,1,"nom","Agent",2,2,"sham",2,837.6,"incorrect","article",0
"808","10",40,28,1,28,"syntax","subject","28",1,2,1,1,"nom","Agent",1,2,"sham",2,609.7,"correct","article",1
"809","10",41,50,2,49,"syntax","object","49",1,1,1,2,"acc","Patient",1,2,"sham",2,694.7,"correct","article",1
"811","10",43,35,2,34,"syntax","object","34",1,2,1,2,"acc","Patient",2,2,"sham",2,672,"correct","article",1
"813","10",45,20,1,20,"syntax","subject","20",1,2,1,1,"nom","Agent",1,2,"sham",2,444.3,"correct","article",1
"816","10",48,19,2,18,"syntax","object","18",1,2,1,1,"acc","Patient",2,1,"sham",2,877.6,"correct","article",1
"817","10",49,44,1,44,"syntax","subject","44",1,1,1,1,"nom","Agent",2,2,"sham",2,543,"correct","article",1
"820","10",52,19,1,19,"syntax","subject","19",1,1,1,2,"nom","Agent",2,1,"sham",2,759.8,"correct","article",1
"822","10",54,21,2,20,"syntax","object","20",1,2,1,1,"acc","Agent",2,2,"sham",2,684.2,"correct","article",1
"824","10",56,14,2,13,"syntax","object","13",1,1,1,2,"nom","Agent",2,1,"sham",2,1330.9,"incorrect","article",0
"825","10",57,24,1,24,"syntax","subject","24",1,2,1,1,"nom","Agent",1,2,"sham",2,398.3,"correct","article",1
"828","10",60,13,2,12,"syntax","object","12",1,1,1,1,"acc","Patient",1,1,"sham",2,1261.8,"correct","article",1
"831","10",63,43,1,43,"syntax","subject","43",1,2,1,2,"acc","Patient",2,2,"sham",2,1010.8,"incorrect","article",0
"833","10",65,16,2,15,"syntax","object","15",1,2,1,2,"acc","Patient",2,2,"sham",2,571,"correct","article",1
"834","10",66,7,1,7,"syntax","subject","7",1,2,1,2,"nom","Agent",1,1,"sham",2,491.7,"correct","article",1
"837","10",69,51,2,50,"syntax","object","50",1,2,1,1,"nom","Agent",1,2,"sham",2,614.2,"incorrect","article",0
"840","10",72,2,1,2,"syntax","subject","2",1,1,1,2,"nom","Agent",2,1,"sham",2,822.1,"correct","article",1
"842","10",74,36,2,35,"syntax","object","35",1,1,1,1,"acc","Patient",1,1,"sham",2,896.1,"correct","article",1
"844","10",76,22,2,21,"syntax","object","21",1,2,1,2,"acc","Patient",2,2,"sham",2,639.4,"correct","article",1
"845","10",77,64,1,64,"syntax","subject","64",1,1,1,1,"nom","Agent",2,2,"sham",2,790.3,"correct","article",1
"848","10",80,60,1,60,"syntax","subject","60",1,2,1,2,"nom","Agent",1,1,"sham",2,587.1,"correct","article",1
"850","10",82,4,2,3,"syntax","object","3",1,2,1,1,"acc","Patient",2,1,"sham",2,553.1,"correct","article",1
"852","10",84,5,1,5,"syntax","subject","5",1,1,1,2,"nom","Agent",2,1,"sham",2,655.3,"correct","article",1
"854","10",86,18,1,18,"syntax","subject","18",1,2,1,1,"nom","Patient",1,1,"sham",2,538,"correct","article",1
"855","10",87,33,2,32,"syntax","object","32",1,1,1,1,"acc","Patient",1,1,"sham",2,435.2,"correct","article",1
"857","10",89,5,2,4,"syntax","object","4",1,1,1,1,"acc","Patient",1,1,"sham",2,430.6,"correct","article",1
"859","10",91,66,1,66,"syntax","subject","66",1,1,1,2,"nom","Agent",2,1,"sham",2,709.9,"correct","article",1
"860","10",92,68,2,67,"syntax","object","67",1,2,1,1,"acc","Patient",2,1,"sham",2,1161.1,"correct","article",1
"863","10",95,11,1,11,"syntax","subject","11",1,2,1,2,"nom","Agent",1,1,"sham",2,695.6,"correct","article",1
"865","10",97,8,1,8,"syntax","subject","8",1,1,1,1,"nom","Agent",2,2,"sham",2,564.2,"correct","article",1
"868","10",100,61,2,60,"syntax","object","60",1,2,1,2,"acc","Patient",2,2,"sham",2,881,"correct","article",1
"870","10",102,45,1,45,"syntax","subject","45",1,1,1,2,"nom","Agent",2,1,"sham",2,611.3,"correct","article",1
"873","10",105,34,1,34,"syntax","subject","34",1,2,1,2,"nom","Agent",1,1,"sham",2,564.6,"correct","article",1
"874","10",106,65,2,64,"syntax","object","64",1,1,1,1,"acc","Patient",1,1,"sham",2,442.7,"correct","article",1
"876","10",108,67,2,66,"syntax","object","66",1,1,1,2,"acc","Patient",1,2,"sham",2,692.3,"correct","article",1
"879","10",111,16,1,16,"syntax","subject","16",1,1,1,1,"nom","Agent",2,2,"sham",2,699.5,"correct","article",1
"882","10",114,18,2,17,"syntax","object","17",1,1,1,2,"acc","Patient",1,2,"sham",2,1322.3,"correct","article",1
"885","10",117,47,1,47,"syntax","subject","47",1,2,1,2,"nom","Agent",1,1,"sham",2,500.4,"correct","article",1
"886","10",118,64,2,63,"syntax","object","63",1,2,1,2,"acc","Patient",2,2,"sham",2,508.6,"correct","article",1
"889","10",121,35,1,35,"syntax","subject","35",1,1,1,1,"nom","Agent",2,2,"sham",2,512,"correct","article",1
"892","10",124,37,1,37,"syntax","subject","37",1,1,1,2,"nom","Agent",2,1,"sham",2,604.7,"correct","article",1
"893","10",125,10,2,9,"syntax","object","9",1,1,1,2,"nom","Agent",2,1,"sham",2,1009.7,"incorrect","article",0
"895","10",127,21,1,21,"syntax","subject","21",1,2,1,2,"nom","Agent",1,1,"sham",2,580,"correct","article",1
"896","10",128,24,2,23,"syntax","object","23",1,1,1,2,"acc","Patient",1,2,"sham",2,484.4,"correct","article",1
"898","10",130,25,1,25,"syntax","subject","25",1,2,1,2,"nom","Agent",1,1,"sham",2,597.4,"correct","article",1
"899","10",131,11,2,10,"syntax","object","10",1,2,1,1,"acc","Patient",2,1,"sham",2,423,"correct","article",1
"901","10",133,29,2,28,"syntax","object","28",1,2,1,1,"acc","Patient",2,1,"sham",2,580.8,"correct","article",1
"902","10",134,1,1,1,"syntax","subject","1",1,1,1,1,"nom","Agent",2,2,"sham",2,543.1,"correct","article",1
"904","10",136,25,2,24,"syntax","object","24",1,2,1,1,"acc","Patient",2,1,"sham",2,515.1,"correct","article",1
"906","10",138,15,1,15,"syntax","subject","15",1,2,1,2,"nom","Agent",1,1,"sham",2,826.7,"correct","article",1
"907","10",139,20,2,19,"syntax","object","19",1,1,1,2,"acc","Patient",1,2,"sham",2,877,"correct","article",1
"909","10",141,53,2,52,"syntax","object","52",1,2,1,2,"acc","Patient",2,2,"sham",2,838.6,"correct","article",1
"910","10",142,32,1,32,"syntax","subject","32",1,1,1,1,"nom","Agent",2,2,"sham",2,876.4,"correct","article",1
"912","10",144,39,2,38,"syntax","object","38",1,2,1,1,"acc","Patient",2,1,"sham",2,647.1,"correct","article",1
"914","10",146,12,2,11,"syntax","object","11",1,2,1,2,"acc","Patient",2,2,"sham",2,584.4,"correct","article",1
"916","10",148,2,2,1,"syntax","object","1",1,1,1,1,"acc","Patient",1,1,"sham",2,1049.1,"correct","article",1
"918","10",150,4,1,4,"syntax","subject","4",1,1,1,1,"nom","Agent",2,2,"sham",2,542.8,"correct","article",1
"921","10",153,13,1,13,"syntax","subject","13",1,1,1,2,"nom","Agent",2,1,"sham",2,711.7,"correct","article",1
"924","10",156,28,2,27,"syntax","object","27",1,1,1,2,"acc","Patient",1,2,"sham",2,845.2,"correct","article",1
"927","10",159,23,1,23,"syntax","subject","23",1,1,1,2,"nom","Agent",2,1,"sham",2,578.4,"correct","article",1
"930","10",162,10,1,10,"syntax","subject","10",1,2,1,1,"nom","Agent",1,2,"sham",2,510.2,"correct","article",1
"931","10",163,49,2,48,"syntax","object","48",1,1,1,1,"acc","Patient",1,1,"sham",2,432.7,"correct","article",1
"933","10",165,52,1,52,"syntax","subject","52",1,2,1,2,"nom","Agent",1,1,"sham",2,392.6,"correct","article",1
"934","10",166,6,2,5,"syntax","object","5",1,1,1,2,"acc","Patient",1,2,"sham",2,736.4,"correct","article",1
"936","10",168,31,1,31,"syntax","subject","31",1,2,1,2,"nom","Agent",1,1,"sham",2,629.7,"correct","article",1
"937","10",169,26,2,25,"syntax","object","25",1,2,1,2,"acc","Patient",2,2,"sham",2,527.6,"correct","article",1
"939","10",171,26,1,26,"syntax","subject","26",1,1,1,1,"nom","Agent",2,2,"sham",2,616.6,"correct","article",1
"941","10",173,50,1,50,"syntax","subject","50",1,2,1,1,"nom","Agent",1,2,"sham",2,475.2,"correct","article",1
"943","10",175,17,2,16,"syntax","object","16",1,1,1,1,"acc","Patient",1,1,"sham",2,467.8,"correct","article",1
"945","10",177,22,1,22,"syntax","subject","22",1,1,1,1,"nom","Agent",2,2,"sham",2,719.5,"correct","article",1
"948","10",180,49,1,49,"syntax","subject","49",1,1,1,2,"nom","Agent",2,1,"sham",2,525.8,"correct","article",1
"949","10",181,48,2,47,"syntax","object","47",1,2,1,2,"acc","Patient",2,2,"sham",2,569.6,"correct","article",1
"951","10",183,67,1,67,"syntax","subject","67",1,2,1,1,"nom","Agent",1,2,"sham",2,498.9,"correct","article",1
"954","10",186,46,1,46,"syntax","subject","46",1,2,1,1,"nom","Agent",1,2,"sham",2,448.5,"correct","article",1
"956","10",188,14,1,14,"syntax","subject","14",1,2,1,1,"nom","Agent",1,2,"sham",2,629.8,"correct","article",1
"958","10",190,17,1,17,"syntax","subject","17",1,1,1,2,"nom","Agent",2,1,"sham",2,635.3,"correct","article",1
"960","10",192,61,1,61,"syntax","subject","61",1,2,1,1,"nom","Agent",1,2,"sham",2,456.7,"correct","article",1
"962","10",2,49,1,49,"syntax","subject","49",1,2,1,1,"acc","Patient",2,1,"BA45",3,504.2,"incorrect","article",0
"965","10",5,6,2,5,"syntax","object","5",1,2,1,1,"acc","Patient",2,1,"BA45",3,866.2,"correct","article",1
"968","10",8,18,2,17,"syntax","object","17",1,2,1,1,"nom","Agent",1,2,"BA45",3,726.8,"incorrect","article",0
"971","10",11,60,1,60,"syntax","subject","60",1,1,1,1,"nom","Agent",2,2,"BA45",3,569.1,"correct","article",1
"973","10",13,22,1,22,"syntax","subject","22",1,1,1,2,"nom","Agent",2,1,"BA45",3,569.1,"correct","article",1
"975","10",15,51,2,50,"syntax","object","50",1,2,1,2,"acc","Patient",2,2,"BA45",3,763.9,"correct","article",1
"977","10",17,11,1,11,"syntax","subject","11",1,1,1,1,"nom","Agent",2,2,"BA45",3,642,"correct","article",1
"978","10",18,5,2,4,"syntax","object","4",1,1,1,2,"acc","Patient",1,2,"BA45",3,703.5,"correct","article",1
"980","10",20,9,2,8,"syntax","object","8",1,1,1,2,"acc","Patient",1,2,"BA45",3,675,"correct","article",1
"982","10",22,44,2,43,"syntax","object","43",1,1,1,1,"acc","Patient",1,1,"BA45",3,426.1,"correct","article",1
"984","10",24,27,2,26,"syntax","object","26",1,1,1,2,"acc","Patient",1,2,"BA45",3,627.6,"correct","article",1
"985","10",25,38,1,38,"syntax","subject","38",1,2,1,2,"nom","Agent",1,1,"BA45",3,362.6,"correct","article",1
"987","10",27,49,2,48,"syntax","object","48",1,1,1,2,"acc","Patient",1,2,"BA45",3,448.8,"correct","article",1
"988","10",28,7,1,7,"syntax","subject","7",1,1,1,1,"nom","Agent",2,2,"BA45",3,591,"correct","article",1
"990","10",30,10,2,9,"syntax","object","9",1,2,1,1,"acc","Patient",2,1,"BA45",3,551.3,"correct","article",1
"992","10",32,25,2,24,"syntax","object","24",1,2,1,2,"acc","Patient",2,2,"BA45",3,627.9,"correct","article",1
"993","10",33,67,1,67,"syntax","subject","67",1,2,1,2,"nom","Agent",1,1,"BA45",3,424.2,"correct","article",1
"996","10",36,65,2,64,"syntax","object","64",1,1,1,2,"acc","Patient",1,2,"BA45",3,440.7,"correct","article",1
"999","10",39,13,1,13,"syntax","subject","13",1,2,1,1,"nom","Agent",1,2,"BA45",3,505.4,"correct","article",1
"1000","10",40,62,2,61,"syntax","object","61",1,2,1,2,"acc","Patient",2,2,"BA45",3,496,"correct","article",1
"1002","10",42,3,2,2,"syntax","object","2",1,2,1,1,"acc","Patient",2,1,"BA45",3,741.7,"correct","article",1
"1003","10",43,45,1,45,"syntax","subject","45",1,2,1,1,"nom","Agent",1,2,"BA45",3,911.4,"correct","article",1
"1005","10",45,28,1,28,"syntax","subject","28",1,2,1,2,"nom","Agent",1,1,"BA45",3,616.7,"correct","article",1
"1006","10",46,11,2,10,"syntax","object","10",1,2,1,2,"acc","Patient",2,2,"BA45",3,612,"correct","article",1
"1008","10",48,66,1,66,"syntax","subject","66",1,2,1,1,"nom","Agent",1,2,"BA45",3,422.7,"correct","article",1
"1009","10",49,24,2,23,"syntax","object","23",1,2,1,1,"acc","Patient",2,1,"BA45",3,739.7,"correct","article",1
"1011","10",51,17,1,17,"syntax","subject","17",1,2,1,1,"nom","Agent",1,2,"BA45",3,359.1,"correct","article",1
"1012","10",52,2,2,1,"syntax","object","1",1,1,1,2,"acc","Patient",1,2,"BA45",3,390.4,"correct","article",1
"1014","10",54,5,1,5,"syntax","subject","5",1,2,1,1,"nom","Agent",1,2,"BA45",3,464.8,"correct","article",1
"1016","10",56,4,1,4,"syntax","subject","4",1,1,1,2,"nom","Agent",2,1,"BA45",3,972.2,"correct","article",1
"1019","10",59,32,2,31,"syntax","object","31",1,1,1,1,"acc","Patient",1,1,"BA45",3,342.4,"correct","article",1
"1021","10",61,61,1,61,"syntax","subject","61",1,2,1,2,"nom","Agent",1,1,"BA45",3,392.7,"correct","article",1
"1022","10",62,67,2,66,"syntax","object","66",1,2,1,1,"acc","Patient",2,1,"BA45",3,596.1,"correct","article",1
"1024","10",64,48,2,47,"syntax","object","47",1,1,1,1,"acc","Patient",1,1,"BA45",3,359.9,"correct","article",1
"1025","10",65,32,1,32,"syntax","subject","32",1,1,1,2,"nom","Agent",2,1,"BA45",3,500.8,"correct","article",1
"1028","10",68,46,1,46,"syntax","subject","46",1,2,1,2,"nom","Agent",1,1,"BA45",3,550.5,"correct","article",1
"1030","10",70,50,2,49,"syntax","object","49",1,2,1,1,"acc","Patient",2,1,"BA45",3,683.8,"correct","article",1
"1031","10",71,20,1,20,"syntax","subject","20",1,2,1,2,"nom","Agent",1,1,"BA45",3,468.5,"correct","article",1
"1033","10",73,16,2,15,"syntax","object","15",1,1,1,1,"acc","Patient",1,1,"BA45",3,470.3,"correct","article",1
"1035","10",75,26,1,26,"syntax","subject","26",1,1,1,2,"nom","Agent",2,1,"BA45",3,529.9,"correct","article",1
"1036","10",76,68,2,67,"syntax","object","67",1,2,1,2,"acc","Patient",2,2,"BA45",3,627,"correct","article",1
"1038","10",78,2,1,2,"syntax","subject","2",1,2,1,1,"nom","Agent",1,2,"BA45",3,657.3,"correct","article",1
"1039","10",79,20,2,19,"syntax","object","19",1,2,1,1,"acc","Patient",2,1,"BA45",3,1003.5,"correct","article",1
"1041","10",81,16,1,16,"syntax","subject","16",1,1,1,2,"nom","Agent",2,1,"BA45",3,614.5,"correct","article",1
"1044","10",84,64,2,63,"syntax","object","63",1,1,1,1,"acc","Patient",1,1,"BA45",3,679.6,"correct","article",1
"1045","10",85,50,1,50,"syntax","subject","50",1,2,1,2,"nom","Agent",1,1,"BA45",3,484.7,"correct","article",1
"1047","10",87,27,1,27,"syntax","subject","27",1,2,1,1,"nom","Agent",1,2,"BA45",3,497.8,"correct","article",1
"1048","10",88,38,2,37,"syntax","object","37",1,2,1,1,"acc","Patient",2,1,"BA45",3,654.3,"correct","article",1
"1051","10",91,35,2,34,"syntax","object","34",1,1,1,1,"acc","Patient",1,1,"BA45",3,610,"correct","article",1
"1053","10",93,3,1,3,"syntax","subject","3",1,2,1,2,"nom","Agent",1,1,"BA45",3,431.4,"correct","article",1
"1055","10",95,36,2,35,"syntax","object","35",1,1,1,2,"acc","Patient",1,2,"BA45",3,516.7,"correct","article",1
"1058","10",98,34,1,34,"syntax","subject","34",1,1,1,1,"nom","Agent",2,2,"BA45",3,508,"correct","article",1
"1059","10",99,19,2,18,"syntax","object","18",1,2,1,2,"acc","Patient",2,2,"BA45",3,615,"correct","article",1
"1061","10",101,15,2,14,"syntax","object","14",1,2,1,2,"acc","Patient",2,2,"BA45",3,731.8,"correct","article",1
"1063","10",103,12,2,11,"syntax","object","11",1,1,1,1,"acc","Patient",1,1,"BA45",3,743.7,"correct","article",1
"1066","10",106,23,2,22,"syntax","object","22",1,1,1,2,"acc","Patient",1,2,"BA45",3,530,"correct","article",1
"1067","10",107,48,1,48,"syntax","subject","48",1,1,1,2,"acc","Patient",1,2,"BA45",3,336.1,"incorrect","article",0
"1069","10",109,61,2,60,"syntax","object","60",1,1,1,1,"acc","Patient",1,1,"BA45",3,750.9,"correct","article",1
"1070","10",110,63,1,63,"syntax","subject","63",1,1,1,1,"nom","Patient",2,1,"BA45",3,627.4,"correct","article",1
"1073","10",113,35,1,35,"syntax","subject","35",1,1,1,2,"nom","Agent",2,1,"BA45",3,638.6,"correct","article",1
"1076","10",116,21,1,21,"syntax","subject","21",1,1,1,1,"nom","Agent",2,2,"BA45",3,589.3,"correct","article",1
"1079","10",119,47,2,46,"syntax","object","46",1,2,1,2,"acc","Patient",2,2,"BA45",3,731.1,"correct","article",1
"1081","10",121,1,1,1,"syntax","subject","1",1,1,1,2,"nom","Agent",2,1,"BA45",3,948.6,"correct","article",1
"1083","10",123,8,2,7,"syntax","object","7",1,1,1,1,"acc","Patient",1,1,"BA45",3,430.6,"correct","article",1
"1085","10",125,52,1,52,"syntax","subject","52",1,1,1,1,"nom","Agent",2,2,"BA45",3,579.6,"correct","article",1
"1088","10",128,45,2,44,"syntax","object","44",1,1,1,2,"acc","Patient",1,2,"BA45",3,578.6,"correct","article",1
"1089","10",129,23,1,23,"syntax","subject","23",1,2,1,1,"nom","Agent",1,2,"BA45",3,436,"correct","article",1
"1091","10",131,4,2,3,"syntax","object","3",1,2,1,2,"acc","Patient",2,2,"BA45",3,521.2,"correct","article",1
"1092","10",132,24,1,24,"syntax","subject","24",1,2,1,2,"nom","Agent",1,1,"BA45",3,533.3,"correct","article",1
"1095","10",135,12,1,12,"syntax","subject","12",1,1,1,2,"nom","Agent",2,1,"BA45",3,573.5,"correct","article",1
"1098","10",138,39,2,38,"syntax","object","38",1,2,1,2,"acc","Agent",2,1,"BA45",3,645.7,"correct","article",1
"1100","10",140,28,2,27,"syntax","object","27",1,2,1,1,"acc","Patient",2,1,"BA45",3,619.2,"correct","article",1
"1101","10",141,25,1,25,"syntax","subject","25",1,1,1,1,"nom","Agent",2,2,"BA45",3,611.8,"correct","article",1
"1103","10",143,19,1,19,"syntax","subject","19",1,2,1,1,"nom","Agent",1,2,"BA45",3,475.9,"correct","article",1
"1104","10",144,21,2,20,"syntax","object","20",1,2,1,2,"acc","Patient",2,2,"BA45",3,537.2,"correct","article",1
"1106","10",146,46,2,45,"syntax","object","45",1,2,1,1,"acc","Patient",2,1,"BA45",3,550.9,"correct","article",1
"1107","10",147,18,1,18,"syntax","subject","18",1,2,1,2,"nom","Agent",1,1,"BA45",3,429.4,"correct","article",1
"1110","10",150,43,1,43,"syntax","subject","43",1,1,1,1,"nom","Agent",2,2,"BA45",3,634.9,"correct","article",1
"1113","10",153,33,2,32,"syntax","object","32",1,1,1,2,"acc","Patient",1,2,"BA45",3,646.7,"correct","article",1
"1116","10",156,29,2,28,"syntax","object","28",1,2,1,2,"acc","Patient",2,2,"BA45",3,697.7,"correct","article",1
"1117","10",157,31,1,31,"syntax","subject","31",1,1,1,1,"nom","Agent",2,2,"BA45",3,631.6,"correct","article",1
"1119","10",159,64,1,64,"syntax","subject","64",1,1,1,2,"nom","Agent",2,1,"BA45",3,591.5,"correct","article",1
"1121","10",161,9,1,9,"syntax","subject","9",1,2,1,1,"nom","Agent",1,2,"BA45",3,632.5,"correct","article",1
"1124","10",164,14,1,14,"syntax","subject","14",1,2,1,2,"nom","Agent",1,1,"BA45",3,407.1,"correct","article",1
"1127","10",167,53,2,52,"syntax","object","52",1,1,1,1,"acc","Patient",1,1,"BA45",3,842.6,"correct","article",1
"1130","10",170,8,1,8,"syntax","subject","8",1,1,1,2,"nom","Agent",2,1,"BA45",3,671.2,"correct","article",1
"1133","10",173,44,1,44,"syntax","subject","44",1,1,1,2,"nom","Agent",2,1,"BA45",3,588.8,"correct","article",1
"1134","10",174,17,2,16,"syntax","object","16",1,1,1,2,"acc","Patient",1,2,"BA45",3,352.5,"correct","article",1
"1137","10",177,15,1,15,"syntax","subject","15",1,1,1,1,"nom","Agent",2,2,"BA45",3,504.2,"correct","article",1
"1138","10",178,22,2,21,"syntax","object","21",1,1,1,1,"acc","Patient",1,1,"BA45",3,574.6,"correct","article",1
"1140","10",180,26,2,25,"syntax","object","25",1,1,1,1,"acc","Patient",1,1,"BA45",3,391.6,"correct","article",1
"1141","10",181,37,1,37,"syntax","subject","37",1,2,1,1,"nom","Agent",1,2,"BA45",3,404.9,"correct","article",1
"1144","10",184,47,1,47,"syntax","subject","47",1,1,1,1,"nom","Agent",2,2,"BA45",3,642.9,"correct","article",1
"1146","10",186,14,2,13,"syntax","object","13",1,2,1,1,"acc","Patient",2,1,"BA45",3,747.5,"correct","article",1
"1149","10",189,10,1,10,"syntax","subject","10",1,2,1,2,"nom","Agent",1,1,"BA45",3,358.4,"correct","article",1
"1151","10",191,13,2,12,"syntax","object","12",1,1,1,2,"acc","Patient",1,2,"BA45",3,1005.1,"correct","article",1
"1154","11",2,33,2,32,"syntax","object","32",1,2,1,1,"acc","Agent",2,2,"BA44",1,759.5,"correct","article",1
"1156","11",4,23,1,23,"syntax","subject","23",1,2,1,2,"nom","Patient",1,2,"BA44",1,664.4,"correct","article",1
"1157","11",5,25,2,24,"syntax","object","24",1,1,1,1,"acc","Agent",1,2,"BA44",1,670.5,"correct","article",1
"1159","11",7,1,1,1,"syntax","subject","1",1,2,1,1,"nom","Agent",1,2,"BA44",1,621.8,"correct","article",1
"1161","11",9,50,2,49,"syntax","object","49",1,2,1,2,"acc","Patient",2,2,"BA44",1,1170.4,"correct","article",1
"1162","11",10,60,1,60,"syntax","subject","60",1,1,1,2,"nom","Agent",2,1,"BA44",1,816.2,"correct","article",1
"1165","11",13,67,1,67,"syntax","subject","67",1,1,1,1,"nom","Agent",2,2,"BA44",1,1035,"correct","article",1
"1166","11",14,67,2,66,"syntax","object","66",1,2,1,2,"acc","Patient",2,2,"BA44",1,387,"correct","article",1
"1168","11",16,15,1,15,"syntax","subject","15",1,1,1,2,"nom","Agent",2,1,"BA44",1,1120.8,"correct","article",1
"1170","11",18,29,2,28,"syntax","object","28",1,1,1,1,"acc","Patient",1,1,"BA44",1,833.5,"correct","article",1
"1172","11",20,27,1,27,"syntax","subject","27",1,2,1,2,"nom","Agent",1,1,"BA44",1,571.8,"correct","article",1
"1173","11",21,12,2,11,"syntax","object","11",1,1,1,2,"acc","Patient",1,2,"BA44",1,773.6,"correct","article",1
"1175","11",23,48,2,47,"syntax","object","47",1,1,1,2,"nom","Agent",2,1,"BA44",1,1327.9,"incorrect","article",0
"1177","11",25,35,2,34,"syntax","object","34",1,1,1,2,"acc","Patient",1,2,"BA44",1,963.3,"correct","article",1
"1179","11",27,14,1,14,"syntax","subject","14",1,1,1,1,"nom","Patient",2,1,"BA44",1,1072.1,"correct","article",1
"1182","11",30,51,2,50,"syntax","object","50",1,1,1,1,"acc","Patient",1,1,"BA44",1,835.9,"correct","article",1
"1185","11",33,4,1,4,"syntax","subject","4",1,2,1,1,"nom","Patient",1,1,"BA44",1,1039.7,"correct","article",1
"1188","11",36,46,1,46,"syntax","subject","46",1,1,1,1,"nom","Agent",2,2,"BA44",1,1052.4,"correct","article",1
"1191","11",39,36,2,35,"syntax","object","35",1,2,1,1,"acc","Agent",2,2,"BA44",1,871.2,"correct","article",1
"1193","11",41,22,1,22,"syntax","subject","22",1,2,1,1,"nom","Agent",1,2,"BA44",1,1216.7,"correct","article",1
"1195","11",43,45,2,44,"syntax","object","44",1,2,1,1,"nom","Agent",1,2,"BA44",1,1119.5,"incorrect","article",0
"1196","11",44,9,1,9,"syntax","subject","9",1,2,1,2,"nom","Agent",1,1,"BA44",1,1042.1,"correct","article",1
"1198","11",46,8,2,7,"syntax","object","7",1,1,1,2,"acc","Patient",1,2,"BA44",1,795.5,"correct","article",1
"1200","11",48,21,1,21,"syntax","subject","21",1,1,1,2,"nom","Agent",2,1,"BA44",1,491.7,"correct","article",1
"1202","11",50,38,2,37,"syntax","object","37",1,2,1,2,"acc","Agent",2,1,"BA44",1,524.8,"correct","article",1
"1203","11",51,26,1,26,"syntax","subject","26",1,2,1,1,"nom","Agent",1,2,"BA44",1,836.1,"correct","article",1
"1205","11",53,20,2,19,"syntax","object","19",1,2,1,2,"acc","Patient",2,2,"BA44",1,515.7,"correct","article",1
"1208","11",56,17,1,17,"syntax","subject","17",1,2,1,2,"nom","Agent",1,1,"BA44",1,634,"correct","article",1
"1210","11",58,63,1,63,"syntax","subject","63",1,1,1,2,"nom","Agent",2,1,"BA44",1,654.7,"correct","article",1
"1212","11",60,44,1,44,"syntax","subject","44",1,2,1,1,"nom","Agent",1,2,"BA44",1,767.5,"correct","article",1
"1214","11",62,3,2,2,"syntax","object","2",1,2,1,2,"nom","Patient",1,2,"BA44",1,695.7,"incorrect","article",0
"1217","11",65,19,2,18,"syntax","object","18",1,1,1,1,"acc","Patient",1,1,"BA44",1,772.3,"correct","article",1
"1218","11",66,7,1,7,"syntax","subject","7",1,1,1,2,"nom","Agent",2,1,"BA44",1,910.8,"correct","article",1
"1220","11",68,10,2,9,"syntax","object","9",1,2,1,2,"acc","Patient",2,2,"BA44",1,782.1,"correct","article",1
"1223","11",71,46,2,45,"syntax","object","45",1,2,1,2,"acc","Patient",2,2,"BA44",1,860.2,"correct","article",1
"1224","11",72,34,1,34,"syntax","subject","34",1,1,1,2,"nom","Agent",2,1,"BA44",1,645.8,"correct","article",1
"1226","11",74,13,1,13,"syntax","subject","13",1,2,1,2,"nom","Agent",1,1,"BA44",1,645,"correct","article",1
"1227","11",75,49,2,48,"syntax","object","48",1,2,1,1,"acc","Agent",2,2,"BA44",1,921.4,"correct","article",1
"1229","11",77,9,2,8,"syntax","object","8",1,2,1,1,"acc","Patient",2,1,"BA44",1,662.3,"correct","article",1
"1230","11",78,50,1,50,"syntax","subject","50",1,1,1,1,"nom","Agent",2,2,"BA44",1,799.3,"correct","article",1
"1233","11",81,32,2,31,"syntax","object","31",1,1,1,2,"acc","Patient",1,2,"BA44",1,1319.2,"correct","article",1
"1236","11",84,16,2,15,"syntax","object","15",1,1,1,2,"acc","Patient",1,2,"BA44",1,1382.7,"correct","article",1
"1238","11",86,5,1,5,"syntax","subject","5",1,2,1,2,"nom","Agent",1,1,"BA44",1,888.2,"correct","article",1
"1240","11",88,4,2,3,"syntax","object","3",1,1,1,1,"acc","Patient",1,1,"BA44",1,552.9,"correct","article",1
"1241","11",89,47,1,47,"syntax","subject","47",1,1,1,2,"nom","Agent",2,1,"BA44",1,994.7,"correct","article",1
"1243","11",91,21,2,20,"syntax","object","20",1,1,1,1,"acc","Patient",1,1,"BA44",1,993.9,"correct","article",1
"1245","11",93,38,1,38,"syntax","subject","38",1,1,1,1,"nom","Agent",2,2,"BA44",1,942.9,"correct","article",1
"1247","11",95,35,1,35,"syntax","subject","35",1,2,1,1,"nom","Agent",1,2,"BA44",1,1006.1,"correct","article",1
"1250","11",98,8,1,8,"syntax","subject","8",1,2,1,1,"nom","Agent",1,2,"BA44",1,784.4,"correct","article",1
"1251","11",99,26,2,25,"syntax","object","25",1,1,1,2,"acc","Agent",1,1,"BA44",1,658.3,"correct","article",1
"1254","11",102,48,1,48,"syntax","subject","48",1,2,1,1,"nom","Patient",1,1,"BA44",1,746,"correct","article",1
"1256","11",104,52,1,52,"syntax","subject","52",1,1,1,2,"nom","Agent",2,1,"BA44",1,585.9,"correct","article",1
"1257","11",105,2,2,1,"syntax","object","1",1,2,1,1,"acc","Patient",2,1,"BA44",1,539.4,"correct","article",1
"1259","11",107,65,2,64,"syntax","object","64",1,2,1,1,"acc","Patient",2,1,"BA44",1,607.9,"correct","article",1
"1261","11",109,10,1,10,"syntax","subject","10",1,1,1,1,"nom","Agent",2,2,"BA44",1,671.2,"correct","article",1
"1262","11",110,17,2,16,"syntax","object","16",1,2,1,1,"acc","Patient",2,1,"BA44",1,674.5,"correct","article",1
"1265","11",113,68,2,67,"syntax","object","67",1,1,1,1,"acc","Patient",1,1,"BA44",1,1014.6,"correct","article",1
"1267","11",115,15,2,14,"syntax","object","14",1,1,1,1,"acc","Patient",1,1,"BA44",1,773.7,"correct","article",1
"1270","11",118,61,1,61,"syntax","subject","61",1,1,1,1,"nom","Agent",2,2,"BA44",1,993.4,"correct","article",1
"1272","11",120,6,2,5,"syntax","object","5",1,2,1,2,"acc","Patient",2,2,"BA44",1,1069.8,"correct","article",1
"1273","11",121,37,1,37,"syntax","subject","37",1,2,1,2,"nom","Agent",1,1,"BA44",1,856.4,"correct","article",1
"1275","11",123,2,1,2,"syntax","subject","2",1,2,1,2,"nom","Agent",1,1,"BA44",1,765.9,"correct","article",1
"1277","11",125,44,2,43,"syntax","object","43",1,1,1,2,"acc","Patient",1,2,"BA44",1,929.8,"correct","article",1
"1280","11",128,66,1,66,"syntax","subject","66",1,2,1,2,"nom","Agent",1,1,"BA44",1,677.4,"correct","article",1
"1283","11",131,28,1,28,"syntax","subject","28",1,1,1,1,"nom","Agent",2,2,"BA44",1,586.3,"correct","article",1
"1285","11",133,24,2,23,"syntax","object","23",1,2,1,2,"acc","Agent",2,1,"BA44",1,724.9,"correct","article",1
"1287","11",135,27,2,26,"syntax","object","26",1,2,1,1,"acc","Patient",2,1,"BA44",1,536.9,"correct","article",1
"1289","11",137,12,1,12,"syntax","subject","12",1,2,1,1,"nom","Agent",1,2,"BA44",1,656,"correct","article",1
"1291","11",139,28,2,27,"syntax","object","27",1,2,1,2,"acc","Patient",2,2,"BA44",1,1015.5,"correct","article",1
"1292","11",140,24,1,24,"syntax","subject","24",1,1,1,1,"nom","Agent",2,2,"BA44",1,912.9,"correct","article",1
"1294","11",142,20,1,20,"syntax","subject","20",1,1,1,1,"nom","Agent",2,2,"BA44",1,594.9,"correct","article",1
"1296","11",144,5,2,4,"syntax","object","4",1,2,1,1,"acc","Patient",2,1,"BA44",1,601.2,"correct","article",1
"1297","11",145,31,1,31,"syntax","subject","31",1,1,1,2,"nom","Patient",2,2,"BA44",1,530,"correct","article",1
"1299","11",147,25,1,25,"syntax","subject","25",1,1,1,2,"nom","Agent",2,1,"BA44",1,849.4,"correct","article",1
"1301","11",149,16,1,16,"syntax","subject","16",1,2,1,1,"nom","Agent",1,2,"BA44",1,641.5,"correct","article",1
"1303","11",151,64,2,63,"syntax","object","63",1,1,1,2,"acc","Patient",1,2,"BA44",1,713,"correct","article",1
"1305","11",153,39,2,38,"syntax","object","38",1,1,1,1,"acc","Patient",1,1,"BA44",1,726.4,"correct","article",1
"1306","11",154,3,1,3,"syntax","subject","3",1,1,1,1,"nom","Agent",2,2,"BA44",1,782,"correct","article",1
"1308","11",156,18,1,18,"syntax","subject","18",1,1,1,1,"nom","Agent",2,2,"BA44",1,698.4,"correct","article",1
"1310","11",158,64,1,64,"syntax","subject","64",1,2,1,1,"nom","Agent",1,2,"BA44",1,1044.6,"correct","article",1
"1311","11",159,11,2,10,"syntax","object","10",1,1,1,1,"acc","Patient",1,1,"BA44",1,596.7,"correct","article",1
"1314","11",162,19,1,19,"syntax","subject","19",1,2,1,2,"nom","Agent",1,1,"BA44",1,708.5,"correct","article",1
"1315","11",163,62,2,61,"syntax","object","61",1,1,1,1,"acc","Patient",1,1,"BA44",1,832.6,"correct","article",1
"1317","11",165,32,1,32,"syntax","subject","32",1,2,1,1,"nom","Agent",1,2,"BA44",1,646.4,"correct","article",1
"1318","11",166,53,2,52,"syntax","object","52",1,1,1,2,"acc","Agent",1,1,"BA44",1,579.2,"correct","article",1
"1320","11",168,49,1,49,"syntax","subject","49",1,2,1,2,"nom","Agent",1,1,"BA44",1,589.9,"correct","article",1
"1323","11",171,22,2,21,"syntax","object","21",1,1,1,2,"acc","Patient",1,2,"BA44",1,496.2,"correct","article",1
"1325","11",173,43,1,43,"syntax","subject","43",1,1,1,2,"nom","Agent",2,1,"BA44",1,891.2,"correct","article",1
"1326","11",174,61,2,60,"syntax","object","60",1,1,1,2,"acc","Patient",1,2,"BA44",1,581.7,"correct","article",1
"1329","11",177,11,1,11,"syntax","subject","11",1,1,1,2,"nom","Agent",2,1,"BA44",1,708,"correct","article",1
"1330","11",178,14,2,13,"syntax","object","13",1,2,1,2,"acc","Patient",2,2,"BA44",1,485.7,"correct","article",1
"1333","11",181,18,2,17,"syntax","object","17",1,2,1,2,"acc","Patient",2,2,"BA44",1,624.6,"correct","article",1
"1336","11",184,23,2,22,"syntax","object","22",1,2,1,1,"acc","Agent",2,2,"BA44",1,549.5,"correct","article",1
"1339","11",187,45,1,45,"syntax","subject","45",1,2,1,2,"nom","Patient",1,2,"BA44",1,1010.1,"correct","article",1
"1340","11",188,47,2,46,"syntax","object","46",1,1,1,1,"acc","Patient",1,1,"BA44",1,649.7,"correct","article",1
"1343","11",191,13,2,12,"syntax","object","12",1,2,1,1,"acc","Agent",2,2,"BA44",1,898.8,"correct","article",1
"1345","11",1,39,2,38,"syntax","object","38",1,1,1,2,"acc","Patient",1,2,"BA45",2,685.9,"correct","article",1
"1347","11",3,49,2,48,"syntax","object","48",1,2,1,2,"acc","Patient",2,2,"BA45",2,505.6,"correct","article",1
"1348","11",4,5,1,5,"syntax","subject","5",1,1,1,1,"nom","Agent",2,2,"BA45",2,714.7,"correct","article",1
"1350","11",6,1,1,1,"syntax","subject","1",1,2,1,2,"nom","Agent",1,1,"BA45",2,618.4,"correct","article",1
"1352","11",8,50,1,50,"syntax","subject","50",1,1,1,2,"nom","Agent",2,1,"BA45",2,552.9,"correct","article",1
"1353","11",9,3,2,2,"syntax","object","2",1,1,1,1,"acc","Patient",1,1,"BA45",2,844.3,"correct","article",1
"1355","11",11,31,1,31,"syntax","subject","31",1,2,1,1,"nom","Patient",1,1,"BA45",2,1044.4,"correct","article",1
"1357","11",13,23,1,23,"syntax","subject","23",1,1,1,1,"nom","Patient",2,1,"BA45",2,656.7,"correct","article",1
"1359","11",15,20,2,19,"syntax","object","19",1,1,1,1,"acc","Patient",1,1,"BA45",2,1227.9,"correct","article",1
"1362","11",18,12,2,11,"syntax","object","11",1,2,1,1,"acc","Patient",2,1,"BA45",2,910.3,"correct","article",1
"1364","11",20,43,1,43,"syntax","subject","43",1,2,1,1,"nom","Agent",1,2,"BA45",2,697.6,"correct","article",1
"1367","11",23,64,2,63,"syntax","object","63",1,2,1,1,"acc","Agent",2,2,"BA45",2,749.7,"correct","article",1
"1369","11",25,28,2,27,"syntax","object","27",1,1,1,1,"acc","Agent",1,2,"BA45",2,701.6,"correct","article",1
"1372","11",28,68,2,67,"syntax","object","67",1,1,1,2,"acc","Patient",1,2,"BA45",2,732.4,"correct","article",1
"1373","11",29,25,1,25,"syntax","subject","25",1,2,1,1,"nom","Patient",1,1,"BA45",2,788.1,"correct","article",1
"1375","11",31,12,1,12,"syntax","subject","12",1,2,1,2,"nom","Agent",1,1,"BA45",2,770.5,"correct","article",1
"1376","11",32,10,2,9,"syntax","object","9",1,1,1,1,"acc","Patient",1,1,"BA45",2,806.2,"correct","article",1
"1378","11",34,14,2,13,"syntax","object","13",1,1,1,1,"acc","Patient",1,1,"BA45",2,586,"correct","article",1
"1379","11",35,16,1,16,"syntax","subject","16",1,2,1,2,"nom","Agent",1,1,"BA45",2,662.7,"correct","article",1
"1381","11",37,61,2,60,"syntax","object","60",1,2,1,1,"acc","Patient",2,1,"BA45",2,586.6,"correct","article",1
"1384","11",40,22,1,22,"syntax","subject","22",1,2,1,2,"nom","Agent",1,1,"BA45",2,712.2,"correct","article",1
"1387","11",43,9,2,8,"syntax","object","8",1,2,1,2,"acc","Patient",2,2,"BA45",2,655.9,"correct","article",1
"1390","11",46,14,1,14,"syntax","subject","14",1,1,1,2,"nom","Patient",2,2,"BA45",2,807.1,"correct","article",1
"1392","11",48,18,1,18,"syntax","subject","18",1,1,1,2,"nom","Agent",2,1,"BA45",2,496.5,"correct","article",1
"1394","11",50,51,2,50,"syntax","object","50",1,1,1,2,"acc","Patient",1,2,"BA45",2,406.3,"correct","article",1
"1396","11",52,11,1,11,"syntax","subject","11",1,2,1,1,"nom","Agent",1,2,"BA45",2,747.1,"correct","article",1
"1399","11",55,61,1,61,"syntax","subject","61",1,1,1,2,"nom","Agent",2,1,"BA45",2,527.6,"correct","article",1
"1402","11",58,2,2,1,"syntax","object","1",1,2,1,2,"acc","Patient",2,2,"BA45",2,652.3,"correct","article",1
"1403","11",59,7,1,7,"syntax","subject","7",1,2,1,1,"nom","Agent",1,2,"BA45",2,541.3,"correct","article",1
"1405","11",61,45,2,44,"syntax","object","44",1,2,1,2,"acc","Patient",2,2,"BA45",2,718.1,"correct","article",1
"1407","11",63,21,2,20,"syntax","object","20",1,1,1,2,"acc","Patient",1,2,"BA45",2,736,"correct","article",1
"1410","11",66,19,1,19,"syntax","subject","19",1,1,1,1,"nom","Agent",2,2,"BA45",2,651.7,"correct","article",1
"1413","11",69,4,1,4,"syntax","subject","4",1,2,1,2,"nom","Agent",1,1,"BA45",2,630.8,"correct","article",1
"1416","11",72,16,2,15,"syntax","object","15",1,2,1,1,"acc","Patient",2,1,"BA45",2,1023.8,"correct","article",1
"1418","11",74,21,1,21,"syntax","subject","21",1,2,1,1,"nom","Agent",1,2,"BA45",2,514.9,"correct","article",1
"1420","11",76,18,2,17,"syntax","object","17",1,1,1,1,"acc","Patient",1,1,"BA45",2,882.4,"correct","article",1
"1421","11",77,60,1,60,"syntax","subject","60",1,2,1,1,"nom","Agent",1,2,"BA45",2,474.3,"correct","article",1
"1423","11",79,17,2,16,"syntax","object","16",1,2,1,2,"acc","Patient",2,2,"BA45",2,556.6,"correct","article",1
"1425","11",81,46,1,46,"syntax","subject","46",1,1,1,2,"nom","Agent",2,1,"BA45",2,696.9,"correct","article",1
"1426","11",82,27,2,26,"syntax","object","26",1,2,1,2,"acc","Patient",2,2,"BA45",2,717.4,"correct","article",1
"1428","11",84,67,1,67,"syntax","subject","67",1,1,1,2,"nom","Agent",2,1,"BA45",2,678.6,"correct","article",1
"1430","11",86,26,2,25,"syntax","object","25",1,2,1,1,"acc","Agent",2,2,"BA45",2,609.4,"correct","article",1
"1431","11",87,28,1,28,"syntax","subject","28",1,1,1,2,"nom","Agent",2,1,"BA45",2,691.7,"correct","article",1
"1433","11",89,50,2,49,"syntax","object","49",1,1,1,1,"acc","Patient",1,1,"BA45",2,505.2,"correct","article",1
"1435","11",91,10,1,10,"syntax","subject","10",1,1,1,2,"nom","Agent",2,1,"BA45",2,587.3,"correct","article",1
"1436","11",92,44,2,43,"syntax","object","43",1,2,1,1,"acc","Patient",2,1,"BA45",2,573,"correct","article",1
"1438","11",94,32,2,31,"syntax","object","31",1,2,1,1,"acc","Patient",2,1,"BA45",2,701.5,"correct","article",1
"1439","11",95,45,1,45,"syntax","subject","45",1,1,1,1,"nom","Agent",2,2,"BA45",2,494.1,"correct","article",1
"1441","11",97,8,1,8,"syntax","subject","8",1,2,1,2,"nom","Agent",1,1,"BA45",2,597.7,"correct","article",1
"1442","11",98,46,2,45,"syntax","object","45",1,1,1,1,"nom","Agent",2,2,"BA45",2,422.1,"incorrect","article",0
"1444","11",100,6,2,5,"syntax","object","5",1,1,1,1,"acc","Patient",1,1,"BA45",2,567,"correct","article",1
"1445","11",101,44,1,44,"syntax","subject","44",1,2,1,2,"nom","Agent",1,1,"BA45",2,489.5,"correct","article",1
"1448","11",104,65,2,64,"syntax","object","64",1,2,1,2,"nom","Agent",1,1,"BA45",2,573.3,"incorrect","article",0
"1450","11",106,5,2,4,"syntax","object","4",1,2,1,2,"acc","Patient",2,2,"BA45",2,496.4,"correct","article",1
"1451","11",107,26,1,26,"syntax","subject","26",1,2,1,2,"nom","Agent",1,1,"BA45",2,788.1,"correct","article",1
"1453","11",109,27,1,27,"syntax","subject","27",1,1,1,1,"nom","Agent",2,2,"BA45",2,828.4,"correct","article",1
"1456","11",112,34,1,34,"syntax","subject","34",1,2,1,1,"nom","Agent",1,2,"BA45",2,637.9,"correct","article",1
"1457","11",113,4,2,3,"syntax","object","3",1,1,1,2,"acc","Agent",1,1,"BA45",2,572.4,"correct","article",1
"1459","11",115,8,2,7,"syntax","object","7",1,2,1,1,"acc","Patient",2,1,"BA45",2,522.1,"correct","article",1
"1461","11",117,48,2,47,"syntax","object","47",1,2,1,1,"acc","Patient",2,1,"BA45",2,534.4,"correct","article",1
"1463","11",119,49,1,49,"syntax","subject","49",1,1,1,1,"nom","Agent",2,2,"BA45",2,558.1,"correct","article",1
"1465","11",121,67,2,66,"syntax","object","66",1,1,1,1,"acc","Patient",1,1,"BA45",2,576.9,"correct","article",1
"1467","11",123,38,1,38,"syntax","subject","38",1,1,1,2,"nom","Agent",2,1,"BA45",2,567.1,"correct","article",1
"1470","11",126,11,2,10,"syntax","object","10",1,1,1,2,"acc","Patient",1,2,"BA45",2,443,"correct","article",1
"1473","11",129,47,2,46,"syntax","object","46",1,1,1,2,"acc","Patient",1,2,"BA45",2,526.2,"correct","article",1
"1474","11",130,20,1,20,"syntax","subject","20",1,1,1,2,"nom","Agent",2,1,"BA45",2,540.6,"correct","article",1
"1476","11",132,13,1,13,"syntax","subject","13",1,1,1,1,"nom","Agent",2,2,"BA45",2,578.1,"correct","article",1
"1477","11",133,36,2,35,"syntax","object","35",1,2,1,2,"acc","Patient",2,2,"BA45",2,925.2,"correct","article",1
"1479","11",135,25,2,24,"syntax","object","24",1,1,1,2,"acc","Patient",1,2,"BA45",2,753.4,"correct","article",1
"1482","11",138,52,1,52,"syntax","subject","52",1,2,1,1,"nom","Agent",1,2,"BA45",2,617.1,"correct","article",1
"1484","11",140,32,1,32,"syntax","subject","32",1,2,1,2,"nom","Patient",1,2,"BA45",2,783.2,"correct","article",1
"1487","11",143,37,1,37,"syntax","subject","37",1,1,1,1,"nom","Agent",2,2,"BA45",2,553.1,"correct","article",1
"1489","11",145,13,2,12,"syntax","object","12",1,2,1,2,"acc","Patient",2,2,"BA45",2,519.7,"correct","article",1
"1492","11",148,33,2,32,"syntax","object","32",1,2,1,2,"acc","Patient",2,2,"BA45",2,607,"correct","article",1
"1494","11",150,53,2,52,"syntax","object","52",1,2,1,1,"acc","Agent",2,2,"BA45",2,507.6,"correct","article",1
"1496","11",152,35,2,34,"syntax","object","34",1,2,1,1,"acc","Patient",2,1,"BA45",2,530.6,"correct","article",1
"1497","11",153,17,1,17,"syntax","subject","17",1,1,1,1,"nom","Agent",2,2,"BA45",2,499.9,"correct","article",1
"1500","11",156,9,1,9,"syntax","subject","9",1,1,1,1,"nom","Agent",2,2,"BA45",2,688.3,"correct","article",1
"1501","11",157,62,2,61,"syntax","object","61",1,1,1,2,"acc","Patient",1,2,"BA45",2,559.3,"correct","article",1
"1503","11",159,23,2,22,"syntax","object","22",1,2,1,2,"acc","Patient",2,2,"BA45",2,575.1,"correct","article",1
"1506","11",162,15,1,15,"syntax","subject","15",1,2,1,1,"nom","Agent",1,2,"BA45",2,627.6,"correct","article",1
"1507","11",163,15,2,14,"syntax","object","14",1,1,1,2,"acc","Patient",1,2,"BA45",2,610.5,"correct","article",1
"1509","11",165,29,2,28,"syntax","object","28",1,1,1,2,"acc","Patient",1,2,"BA45",2,520.2,"correct","article",1
"1510","11",166,47,1,47,"syntax","subject","47",1,2,1,1,"nom","Agent",1,2,"BA45",2,519,"correct","article",1
"1512","11",168,63,1,63,"syntax","subject","63",1,2,1,1,"nom","Agent",1,2,"BA45",2,620.9,"correct","article",1
"1515","11",171,19,2,18,"syntax","object","18",1,1,1,2,"acc","Patient",1,2,"BA45",2,568.2,"correct","article",1
"1517","11",173,64,1,64,"syntax","subject","64",1,2,1,2,"nom","Agent",1,1,"BA45",2,623.3,"correct","article",1
"1518","11",174,38,2,37,"syntax","object","37",1,1,1,1,"nom","Patient",2,1,"BA45",2,591.9,"incorrect","article",0
"1521","11",177,35,1,35,"syntax","subject","35",1,2,1,2,"nom","Agent",1,1,"BA45",2,729.1,"correct","article",1
"1523","11",179,3,1,3,"syntax","subject","3",1,1,1,2,"nom","Agent",2,1,"BA45",2,583.6,"correct","article",1
"1525","11",181,2,1,2,"syntax","subject","2",1,1,1,1,"nom","Agent",2,2,"BA45",2,608.4,"correct","article",1
"1526","11",182,22,2,21,"syntax","object","21",1,2,1,1,"acc","Patient",2,1,"BA45",2,552.3,"correct","article",1
"1529","11",185,66,1,66,"syntax","subject","66",1,1,1,1,"nom","Agent",2,2,"BA45",2,800.5,"correct","article",1
"1530","11",186,24,2,23,"syntax","object","23",1,1,1,1,"acc","Patient",1,1,"BA45",2,469.3,"correct","article",1
"1532","11",188,24,1,24,"syntax","subject","24",1,1,1,2,"nom","Agent",2,1,"BA45",2,501.5,"correct","article",1
"1535","11",191,48,1,48,"syntax","subject","48",1,2,1,2,"nom","Agent",1,1,"BA45",2,552.9,"correct","article",1
"1537","11",1,47,1,47,"syntax","subject","47",1,2,1,2,"nom","Agent",1,1,"sham",3,455.9,"correct","article",1
"1538","11",2,65,2,64,"syntax","object","64",1,1,1,1,"acc","Patient",1,1,"sham",3,750.9,"correct","article",1
"1540","11",4,23,1,23,"syntax","subject","23",1,1,1,2,"nom","Patient",2,2,"sham",3,452.4,"correct","article",1
"1542","11",6,26,2,25,"syntax","object","25",1,2,1,2,"acc","Agent",2,1,"sham",3,626.7,"correct","article",1
"1544","11",8,22,1,22,"syntax","subject","22",1,1,1,1,"nom","Agent",2,2,"sham",3,526.9,"correct","article",1
"1547","11",11,19,1,19,"syntax","subject","19",1,1,1,2,"nom","Agent",2,1,"sham",3,543.6,"correct","article",1
"1549","11",13,45,2,44,"syntax","object","44",1,1,1,1,"acc","Patient",1,1,"sham",3,783.7,"correct","article",1
"1552","11",16,67,1,67,"syntax","subject","67",1,2,1,1,"nom","Agent",1,2,"sham",3,596.2,"correct","article",1
"1554","11",18,3,2,2,"syntax","object","2",1,1,1,2,"acc","Patient",1,2,"sham",3,496.2,"correct","article",1
"1556","11",20,11,1,11,"syntax","subject","11",1,2,1,2,"nom","Agent",1,1,"sham",3,870.6,"correct","article",1
"1559","11",23,47,2,46,"syntax","object","46",1,2,1,1,"acc","Patient",2,1,"sham",3,633.2,"correct","article",1
"1561","11",25,32,1,32,"syntax","subject","32",1,1,1,1,"nom","Patient",2,1,"sham",3,571.9,"correct","article",1
"1562","11",26,25,2,24,"syntax","object","24",1,2,1,1,"acc","Patient",2,1,"sham",3,605.6,"correct","article",1
"1565","11",29,51,2,50,"syntax","object","50",1,2,1,1,"acc","Patient",2,1,"sham",3,801.4,"correct","article",1
"1567","11",31,1,1,1,"syntax","subject","1",1,1,1,1,"nom","Agent",2,2,"sham",3,598.8,"correct","article",1
"1570","11",34,61,1,61,"syntax","subject","61",1,2,1,1,"nom","Agent",1,2,"sham",3,686.2,"correct","article",1
"1571","11",35,21,2,20,"syntax","object","20",1,2,1,1,"acc","Patient",2,1,"sham",3,670.8,"correct","article",1
"1574","11",38,32,2,31,"syntax","object","31",1,2,1,2,"acc","Patient",2,2,"sham",3,622.1,"correct","article",1
"1575","11",39,37,1,37,"syntax","subject","37",1,1,1,2,"nom","Agent",2,1,"sham",3,587.7,"correct","article",1
"1578","11",42,66,1,66,"syntax","subject","66",1,1,1,2,"nom","Agent",2,1,"sham",3,614.3,"correct","article",1
"1579","11",43,6,2,5,"syntax","object","5",1,1,1,2,"acc","Patient",1,2,"sham",3,623.9,"correct","article",1
"1581","11",45,13,2,12,"syntax","object","12",1,1,1,1,"acc","Agent",1,2,"sham",3,578.1,"correct","article",1
"1583","11",47,50,2,49,"syntax","object","49",1,1,1,2,"acc","Patient",1,2,"sham",3,603,"correct","article",1
"1584","11",48,10,1,10,"syntax","subject","10",1,2,1,1,"nom","Agent",1,2,"sham",3,536.9,"correct","article",1
"1586","11",50,44,1,44,"syntax","subject","44",1,1,1,1,"nom","Agent",2,2,"sham",3,535.9,"correct","article",1
"1589","11",53,53,2,52,"syntax","object","52",1,2,1,2,"acc","Agent",2,1,"sham",3,684.4,"correct","article",1
"1591","11",55,67,2,66,"syntax","object","66",1,1,1,2,"acc","Patient",1,2,"sham",3,672.8,"correct","article",1
"1592","11",56,38,1,38,"syntax","subject","38",1,2,1,1,"nom","Agent",1,2,"sham",3,451.6,"correct","article",1
"1595","11",59,64,2,63,"syntax","object","63",1,2,1,2,"acc","Patient",2,2,"sham",3,574.4,"correct","article",1
"1596","11",60,49,1,49,"syntax","subject","49",1,1,1,2,"nom","Agent",2,1,"sham",3,604.4,"correct","article",1
"1598","11",62,35,1,35,"syntax","subject","35",1,1,1,1,"nom","Agent",2,2,"sham",3,744.6,"correct","article",1
"1601","11",65,27,1,27,"syntax","subject","27",1,1,1,2,"nom","Agent",2,1,"sham",3,516,"correct","article",1
"1602","11",66,14,2,13,"syntax","object","13",1,1,1,2,"acc","Patient",1,2,"sham",3,560.1,"correct","article",1
"1605","11",69,25,1,25,"syntax","subject","25",1,2,1,2,"nom","Patient",1,2,"sham",3,518.9,"correct","article",1
"1607","11",71,11,2,10,"syntax","object","10",1,2,1,1,"acc","Patient",2,1,"sham",3,386,"correct","article",1
"1609","11",73,64,1,64,"syntax","subject","64",1,1,1,1,"nom","Agent",2,2,"sham",3,575,"correct","article",1
"1610","11",74,44,2,43,"syntax","object","43",1,2,1,2,"acc","Patient",2,2,"sham",3,634.5,"correct","article",1
"1613","11",77,50,1,50,"syntax","subject","50",1,2,1,1,"nom","Agent",1,2,"sham",3,495.9,"correct","article",1
"1614","11",78,29,2,28,"syntax","object","28",1,2,1,1,"acc","Patient",2,1,"sham",3,586.5,"correct","article",1
"1616","11",80,35,2,34,"syntax","object","34",1,2,1,2,"acc","Agent",2,1,"sham",3,461,"correct","article",1
"1619","11",83,15,1,15,"syntax","subject","15",1,2,1,2,"nom","Agent",1,1,"sham",3,544.4,"correct","article",1
"1620","11",84,8,2,7,"syntax","object","7",1,2,1,2,"acc","Patient",2,2,"sham",3,438.4,"correct","article",1
"1622","11",86,45,1,45,"syntax","subject","45",1,1,1,2,"nom","Agent",2,1,"sham",3,761,"correct","article",1
"1623","11",87,5,2,4,"syntax","object","4",1,1,1,1,"acc","Patient",1,1,"sham",3,504.9,"correct","article",1
"1626","11",90,61,2,60,"syntax","object","60",1,2,1,2,"acc","Patient",2,2,"sham",3,449.6,"correct","article",1
"1628","11",92,48,2,47,"syntax","object","47",1,2,1,2,"acc","Patient",2,2,"sham",3,1008.4,"correct","article",1
"1630","11",94,20,1,20,"syntax","subject","20",1,2,1,1,"nom","Agent",1,2,"sham",3,601.8,"correct","article",1
"1632","11",96,12,1,12,"syntax","subject","12",1,1,1,1,"nom","Agent",2,2,"sham",3,578.2,"correct","article",1
"1635","11",99,3,1,3,"syntax","subject","3",1,2,1,1,"nom","Agent",1,2,"sham",3,592.7,"correct","article",1
"1637","11",101,33,2,32,"syntax","object","32",1,1,1,1,"acc","Patient",1,1,"sham",3,858.6,"correct","article",1
"1638","11",102,7,1,7,"syntax","subject","7",1,2,1,2,"nom","Agent",1,1,"sham",3,563.9,"correct","article",1
"1640","11",104,19,2,18,"syntax","object","18",1,2,1,1,"acc","Patient",2,1,"sham",3,630.2,"correct","article",1
"1642","11",106,13,1,13,"syntax","subject","13",1,1,1,2,"nom","Agent",2,1,"sham",3,709.3,"correct","article",1
"1644","11",108,14,1,14,"syntax","subject","14",1,2,1,1,"nom","Agent",1,2,"sham",3,603.9,"correct","article",1
"1645","11",109,39,2,38,"syntax","object","38",1,2,1,1,"acc","Patient",2,1,"sham",3,624.4,"correct","article",1
"1647","11",111,60,1,60,"syntax","subject","60",1,2,1,2,"nom","Agent",1,1,"sham",3,612.1,"correct","article",1
"1649","11",113,10,2,9,"syntax","object","9",1,1,1,2,"acc","Patient",1,2,"sham",3,686.4,"correct","article",1
"1651","11",115,63,1,63,"syntax","subject","63",1,2,1,2,"nom","Agent",1,1,"sham",3,533.6,"correct","article",1
"1653","11",117,28,2,27,"syntax","object","27",1,1,1,2,"acc","Patient",1,2,"sham",3,467.4,"correct","article",1
"1656","11",120,68,2,67,"syntax","object","67",1,2,1,1,"acc","Patient",2,1,"sham",3,777.1,"correct","article",1
"1659","11",123,4,1,4,"syntax","subject","4",1,1,1,1,"nom","Patient",2,1,"sham",3,550,"correct","article",1
"1660","11",124,16,2,15,"syntax","object","15",1,2,1,2,"acc","Patient",2,2,"sham",3,492.3,"correct","article",1
"1662","11",126,22,2,21,"syntax","object","21",1,2,1,2,"acc","Patient",2,2,"sham",3,429.1,"correct","article",1
"1664","11",128,27,2,26,"syntax","object","26",1,1,1,1,"acc","Patient",1,1,"sham",3,524.7,"correct","article",1
"1665","11",129,34,1,34,"syntax","subject","34",1,2,1,2,"nom","Agent",1,1,"sham",3,562.5,"correct","article",1
"1667","11",131,17,1,17,"syntax","subject","17",1,1,1,2,"nom","Agent",2,1,"sham",3,501.7,"correct","article",1
"1668","11",132,49,2,48,"syntax","object","48",1,1,1,1,"acc","Patient",1,1,"sham",3,573.7,"correct","article",1
"1670","11",134,24,2,23,"syntax","object","23",1,1,1,2,"acc","Agent",1,1,"sham",3,504.5,"correct","article",1
"1673","11",137,31,1,31,"syntax","subject","31",1,2,1,2,"nom","Agent",1,1,"sham",3,519.2,"correct","article",1
"1676","11",140,28,1,28,"syntax","subject","28",1,2,1,1,"nom","Agent",1,2,"sham",3,412.1,"correct","article",1
"1678","11",142,16,1,16,"syntax","subject","16",1,1,1,1,"nom","Agent",2,2,"sham",3,675.9,"correct","article",1
"1679","11",143,9,2,8,"syntax","object","8",1,1,1,1,"acc","Patient",1,1,"sham",3,521.1,"correct","article",1
"1681","11",145,4,2,3,"syntax","object","3",1,2,1,1,"acc","Patient",2,1,"sham",3,481.2,"correct","article",1
"1682","11",146,43,1,43,"syntax","subject","43",1,2,1,2,"nom","Agent",1,1,"sham",3,510.8,"correct","article",1
"1684","11",148,26,1,26,"syntax","subject","26",1,1,1,1,"nom","Agent",2,2,"sham",3,554.8,"correct","article",1
"1685","11",149,12,2,11,"syntax","object","11",1,2,1,2,"acc","Patient",2,2,"sham",3,682.6,"correct","article",1
"1688","11",152,2,1,2,"syntax","subject","2",1,1,1,2,"nom","Agent",2,1,"sham",3,759.3,"correct","article",1
"1689","11",153,62,2,61,"syntax","object","61",1,2,1,1,"acc","Patient",2,1,"sham",3,640.4,"correct","article",1
"1692","11",156,2,2,1,"syntax","object","1",1,1,1,1,"acc","Patient",1,1,"sham",3,535.7,"correct","article",1
"1693","11",157,48,1,48,"syntax","subject","48",1,1,1,1,"nom","Patient",2,1,"sham",3,387.1,"correct","article",1
"1695","11",159,18,2,17,"syntax","object","17",1,1,1,2,"acc","Patient",1,2,"sham",3,753.7,"correct","article",1
"1697","11",161,46,1,46,"syntax","subject","46",1,2,1,1,"nom","Agent",1,2,"sham",3,854.9,"correct","article",1
"1698","11",162,17,2,16,"syntax","object","16",1,1,1,1,"acc","Patient",1,1,"sham",3,653.6,"correct","article",1
"1700","11",164,36,2,35,"syntax","object","35",1,1,1,1,"acc","Patient",1,1,"sham",3,585.4,"correct","article",1
"1703","11",167,38,2,37,"syntax","object","37",1,1,1,2,"acc","Patient",1,2,"sham",3,566.8,"correct","article",1
"1704","11",168,9,1,9,"syntax","subject","9",1,1,1,2,"nom","Agent",2,1,"sham",3,722.5,"correct","article",1
"1707","11",171,15,2,14,"syntax","object","14",1,2,1,1,"acc","Patient",2,1,"sham",3,594.8,"correct","article",1
"1709","11",173,24,1,24,"syntax","subject","24",1,2,1,1,"nom","Agent",1,2,"sham",3,606.7,"correct","article",1
"1710","11",174,23,2,22,"syntax","object","22",1,1,1,1,"acc","Patient",1,1,"sham",3,459.8,"correct","article",1
"1712","11",176,20,2,19,"syntax","object","19",1,1,1,2,"acc","Patient",1,2,"sham",3,454.1,"correct","article",1
"1715","11",179,5,1,5,"syntax","subject","5",1,1,1,2,"nom","Agent",2,1,"sham",3,520,"correct","article",1
"1717","11",181,18,1,18,"syntax","subject","18",1,2,1,1,"nom","Agent",1,2,"sham",3,427.9,"correct","article",1
"1720","11",184,52,1,52,"syntax","subject","52",1,2,1,2,"nom","Patient",1,2,"sham",3,600.5,"correct","article",1
"1722","11",186,46,2,45,"syntax","object","45",1,1,1,2,"acc","Patient",1,2,"sham",3,687.5,"correct","article",1
"1724","11",188,21,1,21,"syntax","subject","21",1,2,1,2,"nom","Agent",1,1,"sham",3,454.1,"correct","article",1
"1727","11",191,8,1,8,"syntax","subject","8",1,1,1,1,"nom","Agent",2,2,"sham",3,615.1,"correct","article",1
"1730","12",2,67,2,66,"syntax","object","66",1,2,1,1,"acc","Agent",2,2,"sham",1,782.4,"correct","article",1
"1733","12",5,3,2,2,"syntax","object","2",1,2,1,1,"nom","Agent",1,2,"sham",1,646.9,"incorrect","article",0
"1735","12",7,18,2,17,"syntax","object","17",1,2,1,1,"acc","Patient",2,1,"sham",1,676.7,"correct","article",1
"1737","12",9,36,2,35,"syntax","object","35",1,1,1,2,"acc","Agent",1,1,"sham",1,523.5,"correct","article",1
"1739","12",11,45,1,45,"syntax","subject","45",1,2,1,1,"nom","Patient",1,1,"sham",1,511.3,"correct","article",1
"1742","12",14,48,1,48,"syntax","subject","48",1,1,1,2,"acc","Patient",1,2,"sham",1,624,"incorrect","article",0
"1744","12",16,37,1,37,"syntax","subject","37",1,2,1,1,"acc","Agent",2,2,"sham",1,651.4,"incorrect","article",0
"1745","12",17,14,2,13,"syntax","object","13",1,2,1,1,"acc","Agent",2,2,"sham",1,542.7,"correct","article",1
"1747","12",19,35,2,34,"syntax","object","34",1,1,1,1,"acc","Agent",1,2,"sham",1,567.9,"correct","article",1
"1749","12",21,24,1,24,"syntax","subject","24",1,2,1,2,"nom","Agent",1,1,"sham",1,590.4,"correct","article",1
"1751","12",23,62,2,61,"syntax","object","61",1,2,1,2,"nom","Agent",1,1,"sham",1,598.6,"incorrect","article",0
"1753","12",25,9,1,9,"syntax","subject","9",1,2,1,1,"nom","Agent",1,2,"sham",1,479.5,"correct","article",1
"1756","12",28,68,2,67,"syntax","object","67",1,2,1,2,"acc","Patient",2,2,"sham",1,810.3,"correct","article",1
"1758","12",30,7,1,7,"syntax","subject","7",1,1,1,1,"acc","Agent",1,2,"sham",1,815.9,"incorrect","article",0
"1761","12",33,11,1,11,"syntax","subject","11",1,1,1,1,"acc","Agent",1,2,"sham",1,476.8,"incorrect","article",0
"1763","12",35,8,1,8,"syntax","subject","8",1,1,1,2,"acc","Patient",1,2,"sham",1,437.1,"incorrect","article",0
"1765","12",37,46,1,46,"syntax","subject","46",1,2,1,2,"nom","Patient",1,2,"sham",1,716.5,"correct","article",1
"1766","12",38,2,2,1,"syntax","object","1",1,1,1,2,"acc","Patient",1,2,"sham",1,764.1,"correct","article",1
"1768","12",40,52,1,52,"syntax","subject","52",1,1,1,1,"acc","Agent",1,2,"sham",1,500.1,"incorrect","article",0
"1769","12",41,20,2,19,"syntax","object","19",1,2,1,1,"nom","Agent",1,2,"sham",1,667.2,"incorrect","article",0
"1771","12",43,64,1,64,"syntax","subject","64",1,1,1,2,"acc","Patient",1,2,"sham",1,522.6,"incorrect","article",0
"1772","12",44,4,2,3,"syntax","object","3",1,2,1,2,"acc","Patient",2,2,"sham",1,928.3,"correct","article",1
"1774","12",46,19,2,18,"syntax","object","18",1,2,1,2,"nom","Patient",1,2,"sham",1,851.7,"incorrect","article",0
"1775","12",47,38,1,38,"syntax","subject","38",1,2,1,2,"acc","Patient",2,2,"sham",1,686.2,"incorrect","article",0
"1777","12",49,20,1,20,"syntax","subject","20",1,2,1,2,"acc","Patient",2,2,"sham",1,898.1,"incorrect","article",0
"1778","12",50,51,2,50,"syntax","object","50",1,2,1,2,"acc","Patient",2,2,"sham",1,680,"correct","article",1
"1780","12",52,28,2,27,"syntax","object","27",1,2,1,1,"acc","Agent",2,2,"sham",1,498.7,"correct","article",1
"1781","12",53,18,1,18,"syntax","subject","18",1,2,1,2,"nom","Agent",1,1,"sham",1,591.6,"correct","article",1
"1783","12",55,3,1,3,"syntax","subject","3",1,2,1,2,"acc","Patient",2,2,"sham",1,524.1,"incorrect","article",0
"1785","12",57,14,1,14,"syntax","subject","14",1,2,1,2,"nom","Agent",1,1,"sham",1,539.9,"correct","article",1
"1787","12",59,66,1,66,"syntax","subject","66",1,2,1,1,"acc","Patient",2,1,"sham",1,441.3,"incorrect","article",0
"1788","12",60,22,2,21,"syntax","object","21",1,1,1,1,"acc","Patient",1,1,"sham",1,616,"correct","article",1
"1790","12",62,60,1,60,"syntax","subject","60",1,1,1,1,"acc","Patient",1,1,"sham",1,770.7,"incorrect","article",0
"1793","12",65,33,2,32,"syntax","object","32",1,1,1,2,"acc","Patient",1,2,"sham",1,579.2,"correct","article",1
"1794","12",66,35,1,35,"syntax","subject","35",1,1,1,2,"acc","Patient",1,2,"sham",1,484.5,"incorrect","article",0
"1797","12",69,1,1,1,"syntax","subject","1",1,1,1,2,"acc","Patient",1,2,"sham",1,573.6,"incorrect","article",0
"1799","12",71,12,1,12,"syntax","subject","12",1,1,1,2,"nom","Patient",2,2,"sham",1,901,"correct","article",1
"1801","12",73,25,1,25,"syntax","subject","25",1,1,1,1,"acc","Patient",1,1,"sham",1,558.9,"incorrect","article",0
"1803","12",75,63,1,63,"syntax","subject","63",1,1,1,1,"acc","Agent",1,2,"sham",1,649.8,"incorrect","article",0
"1805","12",77,61,1,61,"syntax","subject","61",1,2,1,2,"nom","Agent",1,1,"sham",1,599.5,"correct","article",1
"1808","12",80,27,2,26,"syntax","object","26",1,1,1,2,"nom","Agent",2,1,"sham",1,689.5,"incorrect","article",0
"1810","12",82,5,2,4,"syntax","object","4",1,1,1,2,"acc","Patient",1,2,"sham",1,722.1,"correct","article",1
"1812","12",84,44,2,43,"syntax","object","43",1,1,1,1,"acc","Agent",1,2,"sham",1,694.5,"correct","article",1
"1815","12",87,16,2,15,"syntax","object","15",1,1,1,1,"acc","Agent",1,2,"sham",1,534.6,"correct","article",1
"1818","12",90,24,2,23,"syntax","object","23",1,2,1,1,"nom","Agent",1,2,"sham",1,712.8,"incorrect","article",0
"1820","12",92,32,2,31,"syntax","object","31",1,1,1,1,"acc","Patient",1,1,"sham",1,603.6,"correct","article",1
"1822","12",94,49,2,48,"syntax","object","48",1,1,1,2,"nom","Agent",2,1,"sham",1,562.4,"incorrect","article",0
